t,accX,accY,accZ
0,2.8939500000000002,0.18639000000000003,-9.03501
1,2.8547100000000003,0.24525,-10.133730000000002
2,2.8547100000000003,0.24525,-10.133730000000002
3,2.8547100000000003,0.24525,-10.133730000000002
4,2.8547100000000003,0.24525,-10.133730000000002
5,2.8547100000000003,0.24525,-10.133730000000002
6,2.7566100000000002,0.0981,-9.84924
7,2.7566100000000002,0.0981,-9.84924
8,2.7566100000000002,0.0981,-9.84924
9,2.7566100000000002,0.0981,-9.84924
10,2.7566100000000002,0.0981,-9.84924
11,2.65851,0.26487,-8.652420000000001
12,2.65851,0.26487,-8.652420000000001
13,2.65851,0.26487,-8.652420000000001
14,2.65851,0.26487,-8.652420000000001
15,2.65851,0.26487,-8.652420000000001
16,2.62908,0.13734000000000002,-10.76157
17,2.62908,0.13734000000000002,-10.76157
18,2.62908,0.13734000000000002,-10.76157
19,2.62908,0.13734000000000002,-10.76157
20,2.62908,0.13734000000000002,-10.76157
21,2.46231,0.34335000000000004,-10.526130000000002
22,2.46231,0.34335000000000004,-10.526130000000002
23,2.46231,0.34335000000000004,-10.526130000000002
24,2.46231,0.34335000000000004,-10.526130000000002
25,2.46231,0.34335000000000004,-10.526130000000002
26,2.3151600000000006,0.24525,-10.16316
27,2.3151600000000006,0.24525,-10.16316
28,2.3151600000000006,0.24525,-10.16316
29,2.3151600000000006,0.24525,-10.16316
30,2.3151600000000006,0.24525,-10.16316
31,2.3151600000000006,0.24525,-10.16316
32,2.17782,0.18639000000000003,-10.23183
33,2.17782,0.18639000000000003,-10.23183
34,2.17782,0.18639000000000003,-10.23183
35,2.17782,0.18639000000000003,-10.23183
36,2.10915,0.07848000000000001,-7.67142
37,2.10915,0.07848000000000001,-7.67142
38,2.10915,0.07848000000000001,-7.67142
39,2.10915,0.07848000000000001,-7.67142
40,2.10915,0.07848000000000001,-7.67142
41,2.10915,0.07848000000000001,-7.67142
42,2.2661100000000003,-0.4316400000000001,-13.68495
43,2.2661100000000003,-0.4316400000000001,-13.68495
44,2.2661100000000003,-0.4316400000000001,-13.68495
45,2.2661100000000003,-0.4316400000000001,-13.68495
46,2.2661100000000003,-0.4316400000000001,-13.68495
47,1.8246600000000002,0.45126000000000005,-8.15211
48,1.8246600000000002,0.45126000000000005,-8.15211
49,1.8246600000000002,0.45126000000000005,-8.15211
50,1.8246600000000002,0.45126000000000005,-8.15211
51,1.8246600000000002,0.45126000000000005,-8.15211
52,1.9325700000000001,0.5493600000000001,-9.201780000000001
53,1.9325700000000001,0.5493600000000001,-9.201780000000001
54,1.9325700000000001,0.5493600000000001,-9.201780000000001
55,1.9325700000000001,0.5493600000000001,-9.201780000000001
56,1.8246600000000002,-0.21582000000000004,-9.70209
57,1.8246600000000002,-0.21582000000000004,-9.70209
58,1.8246600000000002,-0.21582000000000004,-9.70209
59,1.8246600000000002,-0.21582000000000004,-9.70209
60,1.8246600000000002,-0.21582000000000004,-9.70209
61,1.8246600000000002,-0.21582000000000004,-9.70209
62,1.7363700000000002,-0.18639000000000003,-9.633420000000001
63,1.7363700000000002,-0.18639000000000003,-9.633420000000001
64,1.74618,0.4905,-9.66285
65,1.74618,0.4905,-9.66285
66,1.79523,0.65727,-8.387550000000001
67,1.79523,0.65727,-8.387550000000001
68,1.79523,0.65727,-8.387550000000001
69,1.58922,0.26487,-8.02458
70,1.58922,0.26487,-8.02458
71,1.6382700000000001,0.6376499999999999,-7.867620000000001
72,1.6382700000000001,0.6376499999999999,-7.867620000000001
73,1.6382700000000001,0.6376499999999999,-7.867620000000001
74,1.5499800000000001,0.02943,-11.44827
75,1.5499800000000001,0.02943,-11.44827
76,1.5205500000000003,0.40221000000000007,-8.44641
77,1.5205500000000003,0.40221000000000007,-8.44641
78,1.0791000000000002,-0.16677,-9.60399
79,1.0791000000000002,-0.16677,-9.60399
80,0.89271,0.06867000000000001,-9.486270000000001
81,0.89271,0.06867000000000001,-9.486270000000001
82,0.89271,0.06867000000000001,-9.486270000000001
83,0.89271,0.06867000000000001,-9.486270000000001
84,0.6082200000000001,-0.04905,-7.18092
85,0.6082200000000001,-0.04905,-7.18092
86,0.35316000000000003,-0.02943,-9.28026
87,0.35316000000000003,-0.02943,-9.28026
88,0.36297,0.20601000000000003,-9.10368
89,0.36297,0.20601000000000003,-9.10368
90,0.23544,0.30411000000000005,-8.55432
91,0.23544,0.30411000000000005,-8.55432
92,0.1962,0.45126000000000005,-6.876810000000001
93,0.1962,0.45126000000000005,-6.876810000000001
94,0.1962,0.45126000000000005,-6.876810000000001
95,0.1962,0.45126000000000005,-6.876810000000001
96,0.24525,0.0,-8.20116
97,0.24525,0.0,-8.20116
98,0.06867000000000001,-0.04905,-8.348310000000001
99,0.06867000000000001,-0.04905,-8.348310000000001
100,0.039240000000000004,-0.12753,-7.40655
101,0.039240000000000004,-0.12753,-7.40655
102,-0.15696000000000002,-0.009810000000000001,-8.210970000000001
103,-0.15696000000000002,-0.009810000000000001,-8.210970000000001
104,-0.15696000000000002,-0.009810000000000001,-8.210970000000001
105,-0.2943,0.0,-9.770760000000001
106,-0.2943,0.0,-9.770760000000001
107,-0.21582000000000004,0.0,-8.99577
108,-0.21582000000000004,0.0,-8.99577
109,-0.21582000000000004,0.0,-8.99577
110,-0.37278000000000006,0.019620000000000002,-9.42741
111,-0.37278000000000006,0.019620000000000002,-9.42741
112,-0.37278000000000006,-0.15696000000000002,-9.201780000000001
113,-0.37278000000000006,-0.15696000000000002,-9.201780000000001
114,-0.44145000000000006,-0.08829000000000001,-8.318880000000002
115,-0.44145000000000006,-0.08829000000000001,-8.318880000000002
116,-0.52974,-0.25506,-9.751140000000001
117,-0.52974,-0.25506,-9.751140000000001
118,-0.52974,-0.25506,-9.751140000000001
119,-0.5199300000000001,0.009810000000000001,-9.584370000000002
120,-0.5199300000000001,0.009810000000000001,-9.584370000000002
121,-0.6278400000000001,0.15696000000000002,-8.887860000000002
122,-0.6278400000000001,0.15696000000000002,-8.887860000000002
123,-0.6278400000000001,0.15696000000000002,-8.887860000000002
124,-0.6278400000000001,0.30411000000000005,-10.143540000000002
125,-0.6278400000000001,0.30411000000000005,-10.143540000000002
126,-0.56898,-0.15696000000000002,-9.03501
127,-0.56898,-0.15696000000000002,-9.03501
128,-0.64746,-0.27468000000000004,-10.428030000000001
129,-0.64746,-0.27468000000000004,-10.428030000000001
130,-0.64746,-0.27468000000000004,-10.428030000000001
131,-0.6376499999999999,0.019620000000000002,-9.584370000000002
132,-0.6376499999999999,0.019620000000000002,-9.584370000000002
133,-0.6376499999999999,0.019620000000000002,-9.584370000000002
134,-0.69651,0.08829000000000001,-10.133730000000002
135,-0.69651,0.08829000000000001,-10.133730000000002
136,-0.6180300000000001,-0.0981,-9.74133
137,-0.6180300000000001,-0.0981,-9.74133
138,-0.66708,0.06867000000000001,-10.182780000000001
139,-0.66708,0.06867000000000001,-10.182780000000001
140,-0.66708,0.06867000000000001,-10.182780000000001
141,-0.5984100000000001,-0.12753,-9.437220000000002
142,-0.5984100000000001,-0.12753,-9.437220000000002
143,-0.67689,-0.12753,-9.94734
144,-0.67689,-0.12753,-9.94734
145,-0.69651,0.10791000000000002,-8.67204
146,-0.69651,0.10791000000000002,-8.67204
147,-0.69651,0.10791000000000002,-8.67204
148,-0.7455600000000001,0.04905,-10.241640000000002
149,-0.7455600000000001,0.04905,-10.241640000000002
150,-0.6082200000000001,-0.06867000000000001,-10.90872
151,-0.6082200000000001,-0.06867000000000001,-10.90872
152,-0.6082200000000001,-0.06867000000000001,-10.90872
153,-0.5493600000000001,-0.30411000000000005,-9.633420000000001
154,-0.5493600000000001,-0.30411000000000005,-9.633420000000001
155,-0.65727,-0.039240000000000004,-9.054630000000001
156,-0.65727,-0.039240000000000004,-9.054630000000001
157,-0.6180300000000001,0.1962,-9.260640000000002
158,-0.6180300000000001,0.1962,-9.260640000000002
159,-0.6180300000000001,0.1962,-9.260640000000002
160,-0.56898,0.05886,-9.917910000000001
161,-0.56898,0.05886,-9.917910000000001
162,-0.56898,0.05886,-9.917910000000001
163,-0.45126000000000005,-0.24525,-8.69166
164,-0.45126000000000005,-0.24525,-8.69166
165,-0.50031,-0.21582000000000004,-9.633420000000001
166,-0.50031,-0.21582000000000004,-9.633420000000001
167,-0.5787900000000001,0.0,-10.48689
168,-0.5787900000000001,0.0,-10.48689
169,-0.5787900000000001,0.0,-10.48689
170,-0.5984100000000001,0.15696000000000002,-9.339120000000001
171,-0.5984100000000001,0.15696000000000002,-9.339120000000001
172,-0.6180300000000001,0.11772,-10.23183
173,-0.6180300000000001,0.11772,-10.23183
174,-0.6180300000000001,0.17658000000000001,-9.98658
175,-0.6180300000000001,0.17658000000000001,-9.98658
176,-0.6180300000000001,0.17658000000000001,-9.98658
177,-0.5395500000000001,-0.009810000000000001,-11.09511
178,-0.5395500000000001,-0.009810000000000001,-11.09511
179,-0.56898,-0.06867000000000001,-9.67266
180,-0.56898,-0.06867000000000001,-9.67266
181,-0.56898,-0.06867000000000001,-9.67266
182,-0.5395500000000001,-0.17658000000000001,-10.310310000000001
183,-0.5395500000000001,-0.17658000000000001,-10.310310000000001
184,-0.52974,-0.18639000000000003,-9.98658
185,-0.52974,-0.18639000000000003,-9.98658
186,-0.4905,0.10791000000000002,-9.24102
187,-0.4905,0.10791000000000002,-9.24102
188,-0.22563000000000002,0.30411000000000005,-9.868860000000002
189,-0.22563000000000002,0.30411000000000005,-9.868860000000002
190,-0.22563000000000002,0.30411000000000005,-9.868860000000002
191,-0.22563000000000002,0.30411000000000005,-9.868860000000002
192,-0.24525,-0.019620000000000002,-10.192590000000001
193,-0.24525,-0.019620000000000002,-10.192590000000001
194,-0.34335000000000004,-0.039240000000000004,-10.055250000000001
195,-0.34335000000000004,-0.039240000000000004,-10.055250000000001
196,-0.46107000000000004,-0.16677,-10.54575
197,-0.46107000000000004,-0.16677,-10.54575
198,-0.41202000000000005,0.11772,-10.16316
199,-0.41202000000000005,0.11772,-10.16316
200,-0.41202000000000005,0.11772,-10.16316
201,-0.32373,0.11772,-10.006200000000002
202,-0.32373,0.11772,-10.006200000000002
203,-0.28449,0.30411000000000005,-10.27107
204,-0.28449,0.30411000000000005,-10.27107
205,-0.28449,-0.05886,-10.555560000000002
206,-0.28449,-0.05886,-10.555560000000002
207,-0.28449,-0.05886,-10.555560000000002
208,-0.42183000000000004,0.0981,-9.339120000000001
209,-0.42183000000000004,0.0981,-9.339120000000001
210,-0.3924,0.30411000000000005,-10.16316
211,-0.3924,0.30411000000000005,-10.16316
212,-0.3924,0.30411000000000005,-10.16316
213,-0.34335000000000004,0.0,-10.810620000000002
214,-0.34335000000000004,0.0,-10.810620000000002
215,-0.45126000000000005,0.0,-10.378980000000002
216,-0.45126000000000005,0.0,-10.378980000000002
217,-0.31392000000000003,-0.10791000000000002,-10.67328
218,-0.31392000000000003,-0.10791000000000002,-10.67328
219,-0.31392000000000003,-0.10791000000000002,-10.67328
220,-0.31392000000000003,-0.10791000000000002,-10.67328
221,-0.26487,0.42183000000000004,-10.53594
222,-0.34335000000000004,0.25506,-8.51508
223,-0.34335000000000004,0.25506,-8.51508
224,-0.40221000000000007,0.12753,-9.397980000000002
225,-0.40221000000000007,0.12753,-9.397980000000002
226,-0.40221000000000007,0.12753,-9.397980000000002
227,-0.32373,0.0,-9.70209
228,-0.32373,0.0,-9.70209
229,-0.32373,0.0,-9.70209
230,-0.33354,0.13734000000000002,-10.72233
231,-0.33354,0.13734000000000002,-10.72233
232,-0.15696000000000002,0.009810000000000001,-9.24102
233,-0.15696000000000002,0.009810000000000001,-9.24102
234,-0.2943,0.02943,-9.25083
235,-0.2943,0.02943,-9.25083
236,-0.23544,-0.17658000000000001,-10.320120000000001
237,-0.23544,-0.17658000000000001,-10.320120000000001
238,-0.23544,-0.17658000000000001,-10.320120000000001
239,-0.1962,-0.25506,-7.838190000000001
240,-0.1962,-0.25506,-7.838190000000001
241,-0.1962,-0.25506,-7.838190000000001
242,-0.1962,-0.25506,-7.838190000000001
243,-0.24525,-0.02943,-9.67266
244,-0.1962,0.2943,-10.92834
245,-0.1962,0.2943,-10.92834
246,-0.22563000000000002,0.37278000000000006,-11.409030000000001
247,-0.22563000000000002,0.37278000000000006,-11.409030000000001
248,-0.22563000000000002,0.37278000000000006,-11.409030000000001
249,-0.17658000000000001,-0.28449,-8.917290000000001
250,-0.17658000000000001,-0.28449,-8.917290000000001
251,-0.24525,-0.13734000000000002,-10.006200000000002
252,-0.24525,-0.13734000000000002,-10.006200000000002
253,-0.14715,-0.10791000000000002,-10.3005
254,-0.14715,-0.10791000000000002,-10.3005
255,-0.14715,-0.10791000000000002,-10.3005
256,-0.18639000000000003,0.5493600000000001,-8.28945
257,-0.18639000000000003,0.5493600000000001,-8.28945
258,-0.20601000000000003,0.10791000000000002,-10.428030000000001
259,-0.20601000000000003,0.10791000000000002,-10.428030000000001
260,-0.20601000000000003,0.10791000000000002,-10.428030000000001
261,-0.06867000000000001,0.27468000000000004,-9.69228
262,-0.06867000000000001,0.27468000000000004,-9.69228
263,-0.18639000000000003,0.20601000000000003,-10.72233
264,-0.18639000000000003,0.20601000000000003,-10.72233
265,-0.14715,0.02943,-10.21221
266,-0.14715,0.02943,-10.21221
267,-0.14715,0.02943,-10.21221
268,-0.14715,0.02943,-10.21221
269,-0.35316000000000003,0.16677,-9.780569999999999
270,-0.36297,-0.08829000000000001,-9.2214
271,-0.36297,-0.08829000000000001,-9.2214
272,-0.36297,-0.08829000000000001,-9.2214
273,-0.48069,-0.17658000000000001,-11.20302
274,-0.41202000000000005,-0.0981,-10.3005
275,-0.41202000000000005,-0.0981,-10.3005
276,-0.41202000000000005,-0.0981,-10.3005
277,-0.35316000000000003,0.40221000000000007,-9.770760000000001
278,-0.35316000000000003,0.40221000000000007,-9.770760000000001
279,-0.35316000000000003,0.40221000000000007,-9.770760000000001
280,-0.35316000000000003,0.40221000000000007,-9.770760000000001
281,-0.25506,-0.05886,-9.11349
282,-0.1962,0.06867000000000001,-9.50589
283,-0.1962,0.06867000000000001,-9.50589
284,-0.1962,0.06867000000000001,-9.50589
285,-0.10791000000000002,0.26487,-10.16316
286,-0.10791000000000002,0.26487,-10.16316
287,-0.20601000000000003,0.10791000000000002,-9.584370000000002
288,-0.20601000000000003,0.10791000000000002,-9.584370000000002
289,-0.11772,-0.02943,-9.81
290,-0.11772,-0.02943,-9.81
291,-0.11772,-0.02943,-9.81
292,-0.11772,-0.02943,-9.81
293,-0.1962,-0.04905,-9.55494
294,-0.1962,-0.04905,-9.55494
295,-0.24525,-0.07848000000000001,-10.16316
296,-0.24525,-0.07848000000000001,-10.16316
297,-0.30411000000000005,0.27468000000000004,-9.15273
298,-0.30411000000000005,0.27468000000000004,-9.15273
299,-0.4316400000000001,-0.11772,-11.87991
300,-0.4316400000000001,-0.11772,-11.87991
301,-0.4316400000000001,-0.11772,-11.87991
302,-0.45126000000000005,-0.08829000000000001,-10.12392
303,-0.45126000000000005,-0.08829000000000001,-10.12392
304,-0.56898,0.13734000000000002,-10.378980000000002
305,-0.56898,0.13734000000000002,-10.378980000000002
306,-0.56898,0.13734000000000002,-10.378980000000002
307,-0.4905,0.08829000000000001,-9.496080000000001
308,-0.47088,0.0,-9.760950000000001
309,-0.47088,0.0,-9.760950000000001
310,-0.52974,-0.13734000000000002,-10.241640000000002
311,-0.52974,-0.13734000000000002,-10.241640000000002
312,-0.52974,-0.13734000000000002,-10.241640000000002
313,-0.67689,-0.13734000000000002,-9.70209
314,-0.67689,-0.13734000000000002,-9.70209
315,-0.67689,-0.13734000000000002,-9.70209
316,-0.66708,-0.3924,-9.682470000000002
317,-0.66708,-0.3924,-9.682470000000002
318,-0.66708,-0.3924,-9.682470000000002
319,-0.71613,0.009810000000000001,-10.840050000000002
320,-0.64746,0.02943,-9.339120000000001
321,-0.64746,0.02943,-9.339120000000001
322,-0.64746,0.02943,-9.339120000000001
323,-0.6376499999999999,0.0,-9.760950000000001
324,-0.6376499999999999,0.0,-9.760950000000001
325,-0.6278400000000001,0.4316400000000001,-9.60399
326,-0.6278400000000001,0.4316400000000001,-9.60399
327,-0.72594,-0.0981,-11.467890000000002
328,-0.72594,-0.0981,-11.467890000000002
329,-0.72594,-0.0981,-11.467890000000002
330,-0.33354,0.17658000000000001,-2.6388900000000004
331,-0.33354,0.17658000000000001,-2.6388900000000004
332,-0.69651,-0.5199300000000001,-10.575180000000001
333,-0.69651,-0.5199300000000001,-10.575180000000001
334,-0.69651,-0.5199300000000001,-10.575180000000001
335,-0.69651,0.06867000000000001,-8.51508
336,-0.69651,0.06867000000000001,-8.51508
337,-0.7651800000000001,0.22563000000000002,-9.00558
338,-0.7651800000000001,0.22563000000000002,-9.00558
339,-0.7651800000000001,0.22563000000000002,-9.00558
340,-0.64746,0.56898,-9.83943
341,-0.64746,0.56898,-9.83943
342,-0.56898,-0.14715,-8.51508
343,-0.56898,-0.14715,-8.51508
344,-0.44145000000000006,-0.35316000000000003,-8.09325
345,-0.44145000000000006,-0.35316000000000003,-8.09325
346,-0.44145000000000006,-0.35316000000000003,-8.09325
347,-0.44145000000000006,-0.13734000000000002,-9.329310000000001
348,-0.44145000000000006,-0.13734000000000002,-9.329310000000001
349,-0.44145000000000006,-0.13734000000000002,-9.329310000000001
350,-0.47088,-0.36297,-9.29007
351,-0.47088,-0.36297,-9.29007
352,-0.3924,-0.0981,-8.47584
353,-0.3924,-0.0981,-8.47584
354,-0.44145000000000006,0.31392000000000003,-9.329310000000001
355,-0.44145000000000006,0.31392000000000003,-9.329310000000001
356,-0.44145000000000006,0.31392000000000003,-9.329310000000001
357,-0.2943,0.51012,-9.859050000000002
358,-0.2943,0.51012,-9.859050000000002
359,-0.44145000000000006,0.08829000000000001,-9.80019
360,-0.44145000000000006,0.08829000000000001,-9.80019
361,-0.44145000000000006,0.08829000000000001,-9.80019
362,-0.36297,-0.5395500000000001,-10.68309
363,-0.36297,-0.5395500000000001,-10.68309
364,-0.38259000000000004,-0.2943,-10.732140000000001
365,-0.38259000000000004,-0.2943,-10.732140000000001
366,-0.38259000000000004,-0.2943,-10.732140000000001
367,-0.5493600000000001,0.13734000000000002,-12.05649
368,-0.6376499999999999,-0.02943,-12.674520000000001
369,-0.6376499999999999,-0.02943,-12.674520000000001
370,-0.6376499999999999,-0.02943,-12.674520000000001
371,-0.6376499999999999,-0.02943,-12.674520000000001
372,-0.6376499999999999,-0.02943,-12.674520000000001
373,-0.6376499999999999,-0.02943,-12.674520000000001
374,-0.5787900000000001,-0.40221000000000007,-10.947960000000002
375,-0.5787900000000001,-0.40221000000000007,-10.947960000000002
376,-0.5787900000000001,-0.40221000000000007,-10.947960000000002
377,-0.5787900000000001,-0.40221000000000007,-10.947960000000002
378,-0.5787900000000001,-0.40221000000000007,-10.947960000000002
379,-0.35316000000000003,0.44145000000000006,-5.8565700000000005
380,-0.35316000000000003,0.44145000000000006,-5.8565700000000005
381,-0.35316000000000003,0.44145000000000006,-5.8565700000000005
382,-0.35316000000000003,0.44145000000000006,-5.8565700000000005
383,-0.35316000000000003,0.44145000000000006,-5.8565700000000005
384,-0.23544,0.11772,-10.143540000000002
385,-0.23544,0.11772,-10.143540000000002
386,-0.23544,0.11772,-10.143540000000002
387,-0.23544,0.11772,-10.143540000000002
388,-0.23544,0.11772,-10.143540000000002
389,-0.1962,0.039240000000000004,-8.063820000000002
390,-0.1962,0.039240000000000004,-8.063820000000002
391,-0.1962,0.039240000000000004,-8.063820000000002
392,-0.1962,0.039240000000000004,-8.063820000000002
393,-0.1962,0.07848000000000001,-8.86824
394,-0.1962,0.07848000000000001,-8.86824
395,-0.1962,0.07848000000000001,-8.86824
396,-0.1962,0.07848000000000001,-8.86824
397,-0.1962,0.07848000000000001,-8.86824
398,-0.1962,0.07848000000000001,-8.86824
399,-0.11772,0.15696000000000002,-9.015390000000002
400,-0.11772,0.15696000000000002,-9.015390000000002
401,-0.11772,0.15696000000000002,-9.015390000000002
402,-0.11772,0.15696000000000002,-9.015390000000002
403,-0.40221000000000007,0.009810000000000001,-10.800810000000002
404,-0.40221000000000007,0.009810000000000001,-10.800810000000002
405,-0.40221000000000007,0.009810000000000001,-10.800810000000002
406,-0.40221000000000007,0.009810000000000001,-10.800810000000002
407,-0.40221000000000007,0.009810000000000001,-10.800810000000002
408,-0.25506,0.0,-11.32074
409,-0.25506,0.0,-11.32074
410,-0.25506,0.0,-11.32074
411,-0.25506,0.0,-11.32074
412,-0.25506,0.0,-11.32074
413,-0.25506,0.0,-11.32074
414,-0.22563000000000002,0.07848000000000001,-11.605230000000002
415,-0.22563000000000002,0.07848000000000001,-11.605230000000002
416,-0.22563000000000002,0.07848000000000001,-11.605230000000002
417,-0.22563000000000002,0.07848000000000001,-11.605230000000002
418,-0.22563000000000002,0.07848000000000001,-11.605230000000002
419,-0.30411000000000005,0.0,-10.045440000000001
420,-0.30411000000000005,0.0,-10.045440000000001
421,-0.30411000000000005,0.0,-10.045440000000001
422,-0.30411000000000005,0.0,-10.045440000000001
423,-0.30411000000000005,0.0,-10.045440000000001
424,-0.25506,-0.07848000000000001,-11.49732
425,-0.25506,-0.07848000000000001,-11.49732
426,-0.25506,-0.07848000000000001,-11.49732
427,-0.25506,-0.07848000000000001,-11.49732
428,-0.25506,-0.07848000000000001,-11.49732
429,-0.27468000000000004,0.8632800000000002,-6.435360000000001
430,-0.27468000000000004,0.8632800000000002,-6.435360000000001
431,-0.27468000000000004,0.8632800000000002,-6.435360000000001
432,-0.27468000000000004,0.8632800000000002,-6.435360000000001
433,-0.27468000000000004,0.8632800000000002,-6.435360000000001
434,-0.22563000000000002,-0.10791000000000002,-12.115350000000001
435,-0.22563000000000002,-0.10791000000000002,-12.115350000000001
436,-0.22563000000000002,-0.10791000000000002,-12.115350000000001
437,-0.22563000000000002,-0.10791000000000002,-12.115350000000001
438,-0.22563000000000002,-0.10791000000000002,-12.115350000000001
439,-0.23544,-0.48069,-10.11411
440,-0.23544,-0.48069,-10.11411
441,-0.23544,-0.48069,-10.11411
442,-0.23544,-0.48069,-10.11411
443,-0.23544,-0.48069,-10.11411
444,-0.42183000000000004,0.44145000000000006,-10.53594
445,-0.42183000000000004,0.44145000000000006,-10.53594
446,-0.42183000000000004,0.44145000000000006,-10.53594
447,-0.42183000000000004,0.44145000000000006,-10.53594
448,-0.42183000000000004,0.44145000000000006,-10.53594
449,-0.42183000000000004,0.44145000000000006,-10.53594
450,-0.52974,0.28449,-10.977390000000002
451,-0.52974,0.28449,-10.977390000000002
452,-0.52974,0.28449,-10.977390000000002
453,-0.5493600000000001,-0.30411000000000005,-10.85967
454,-0.5493600000000001,-0.30411000000000005,-10.85967
455,-0.5493600000000001,-0.30411000000000005,-10.85967
456,-0.5493600000000001,-0.30411000000000005,-10.85967
457,-0.5493600000000001,-0.30411000000000005,-10.85967
458,-0.51012,-0.11772,-7.44579
459,-0.51012,-0.11772,-7.44579
460,-0.51012,-0.11772,-7.44579
461,-0.51012,-0.11772,-7.44579
462,-0.51012,-0.11772,-7.44579
463,-0.5199300000000001,-0.16677,-6.71004
464,-0.5199300000000001,-0.16677,-6.71004
465,-0.5199300000000001,-0.16677,-6.71004
466,-0.5199300000000001,-0.16677,-6.71004
467,-0.5199300000000001,-0.16677,-6.71004
468,-0.5493600000000001,-0.21582000000000004,-8.80938
469,-0.5493600000000001,-0.21582000000000004,-8.80938
470,-0.5493600000000001,-0.21582000000000004,-8.80938
471,-0.5493600000000001,-0.21582000000000004,-8.80938
472,-0.5493600000000001,-0.21582000000000004,-8.80938
473,-0.5493600000000001,-0.21582000000000004,-8.80938
474,-0.75537,-0.50031,-11.026440000000001
475,-0.75537,-0.50031,-11.026440000000001
476,-0.75537,-0.50031,-11.026440000000001
477,-0.75537,-0.50031,-11.026440000000001
478,-0.75537,-0.50031,-11.026440000000001
479,-0.71613,-0.37278000000000006,-9.819810000000002
480,-0.71613,-0.37278000000000006,-9.819810000000002
481,-0.71613,-0.37278000000000006,-9.819810000000002
482,-0.71613,-0.37278000000000006,-9.819810000000002
483,-0.71613,-0.37278000000000006,-9.819810000000002
484,-0.7749900000000001,-0.24525,-10.800810000000002
485,-0.7749900000000001,-0.24525,-10.800810000000002
486,-0.7749900000000001,-0.24525,-10.800810000000002
487,-0.7749900000000001,-0.24525,-10.800810000000002
488,-0.8044200000000001,-0.47088,-11.536560000000001
489,-0.8044200000000001,-0.47088,-11.536560000000001
490,-0.8044200000000001,-0.47088,-11.536560000000001
491,-0.8044200000000001,-0.47088,-11.536560000000001
492,-0.8044200000000001,-0.47088,-11.536560000000001
493,-0.75537,-0.36297,-12.17421
494,-0.75537,-0.36297,-12.17421
495,-0.75537,-0.36297,-12.17421
496,-0.75537,-0.36297,-12.17421
497,-0.75537,-0.36297,-12.17421
498,-0.75537,-0.36297,-12.17421
499,-0.75537,0.08829000000000001,-10.65366
500,-0.75537,0.08829000000000001,-10.65366
501,-0.75537,0.08829000000000001,-10.65366
502,-0.75537,0.08829000000000001,-10.65366
503,-0.7455600000000001,0.10791000000000002,-10.76157
504,-0.7455600000000001,0.10791000000000002,-10.76157
505,-0.7455600000000001,0.10791000000000002,-10.76157
506,-0.7455600000000001,0.10791000000000002,-10.76157
507,-0.7455600000000001,0.10791000000000002,-10.76157
508,-0.7455600000000001,0.10791000000000002,-10.76157
509,-0.67689,0.26487,-9.211590000000001
510,-0.67689,0.26487,-9.211590000000001
511,-0.67689,0.26487,-9.211590000000001
512,-0.67689,0.26487,-9.211590000000001
513,-0.67689,0.26487,-9.211590000000001
514,-0.69651,-0.02943,-10.07487
515,-0.69651,-0.02943,-10.07487
516,-0.6376499999999999,0.12753,-9.868860000000002
517,-0.6376499999999999,0.12753,-9.868860000000002
518,-0.6278400000000001,-0.3924,-11.33055
519,-0.6278400000000001,-0.3924,-11.33055
520,-0.6278400000000001,-0.3924,-11.33055
521,-0.5395500000000001,-0.33354,-9.42741
522,-0.5395500000000001,-0.33354,-9.42741
523,-0.5493600000000001,0.18639000000000003,-7.553700000000001
524,-0.5493600000000001,0.18639000000000003,-7.553700000000001
525,-0.5395500000000001,-0.039240000000000004,-7.955910000000001
526,-0.5395500000000001,-0.039240000000000004,-7.955910000000001
527,-0.5395500000000001,-0.039240000000000004,-7.955910000000001
528,-0.5395500000000001,-0.039240000000000004,-7.955910000000001
529,-0.5199300000000001,0.67689,-7.485030000000001
530,-0.6376499999999999,0.17658000000000001,-11.409030000000001
531,-0.6376499999999999,0.17658000000000001,-11.409030000000001
532,-0.6376499999999999,0.17658000000000001,-11.409030000000001
533,-0.30411000000000005,-0.45126000000000005,-9.92772
534,-0.30411000000000005,-0.45126000000000005,-9.92772
535,-0.35316000000000003,-0.039240000000000004,-6.435360000000001
536,-0.35316000000000003,-0.039240000000000004,-6.435360000000001
537,-0.35316000000000003,-0.039240000000000004,-6.435360000000001
538,-0.4905,0.10791000000000002,-9.40779
539,-0.4905,0.10791000000000002,-9.40779
540,-0.37278000000000006,0.15696000000000002,-9.53532
541,-0.37278000000000006,0.15696000000000002,-9.53532
542,-0.34335000000000004,0.04905,-9.17235
543,-0.34335000000000004,0.04905,-9.17235
544,-0.34335000000000004,0.04905,-9.17235
545,-0.40221000000000007,-0.21582000000000004,-9.721710000000002
546,-0.40221000000000007,-0.21582000000000004,-9.721710000000002
547,-0.3924,-0.28449,-6.386310000000001
548,-0.3924,-0.28449,-6.386310000000001
549,-0.3924,-0.28449,-6.386310000000001
550,-0.5984100000000001,-0.30411000000000005,-11.20302
551,-0.5984100000000001,-0.30411000000000005,-11.20302
552,-0.47088,-0.28449,-7.622370000000001
553,-0.47088,-0.28449,-7.622370000000001
554,-0.47088,-0.28449,-7.622370000000001
555,-0.50031,0.0,-11.90934
556,-0.50031,0.0,-11.90934
557,-0.6278400000000001,0.22563000000000002,-9.14292
558,-0.6278400000000001,0.22563000000000002,-9.14292
559,-0.5591700000000001,0.05886,-10.96758
560,-0.5591700000000001,0.05886,-10.96758
561,-0.5395500000000001,-0.11772,-9.11349
562,-0.5395500000000001,-0.11772,-9.11349
563,-0.5395500000000001,-0.11772,-9.11349
564,-0.5395500000000001,-0.11772,-9.11349
565,-0.56898,-0.14715,-11.114730000000002
566,-0.56898,-0.14715,-11.114730000000002
567,-0.5886,0.08829000000000001,-8.26002
568,-0.5787900000000001,0.02943,-10.23183
569,-0.5787900000000001,0.02943,-10.23183
570,-0.5787900000000001,0.02943,-10.23183
571,-0.5199300000000001,0.17658000000000001,-9.5157
572,-0.5199300000000001,0.17658000000000001,-9.5157
573,-0.5199300000000001,0.17658000000000001,-9.5157
574,-0.50031,0.22563000000000002,-9.574560000000002
575,-0.50031,0.22563000000000002,-9.574560000000002
576,-0.5199300000000001,0.12753,-10.035630000000001
577,-0.5199300000000001,0.12753,-10.035630000000001
578,-0.51012,-0.17658000000000001,-9.760950000000001
579,-0.51012,-0.17658000000000001,-9.760950000000001
580,-0.33354,-0.009810000000000001,-10.575180000000001
581,-0.33354,-0.009810000000000001,-10.575180000000001
582,-0.33354,-0.009810000000000001,-10.575180000000001
583,-0.50031,0.08829000000000001,-10.467270000000001
584,-0.50031,0.08829000000000001,-10.467270000000001
585,-0.40221000000000007,-0.019620000000000002,-10.09449
586,-0.40221000000000007,-0.019620000000000002,-10.09449
587,-0.40221000000000007,-0.019620000000000002,-10.09449
588,-0.45126000000000005,0.30411000000000005,-8.770140000000001
589,-0.45126000000000005,0.30411000000000005,-8.770140000000001
590,-0.45126000000000005,0.30411000000000005,-8.770140000000001
591,-0.30411000000000005,-0.18639000000000003,-9.66285
592,-0.30411000000000005,-0.18639000000000003,-9.66285
593,-0.30411000000000005,-0.18639000000000003,-9.66285
594,-0.35316000000000003,0.27468000000000004,-9.917910000000001
595,-0.31392000000000003,-0.10791000000000002,-9.309690000000002
596,-0.31392000000000003,-0.10791000000000002,-9.309690000000002
597,-0.31392000000000003,-0.10791000000000002,-9.309690000000002
598,-0.46107000000000004,-0.02943,-9.486270000000001
599,-0.46107000000000004,-0.02943,-9.486270000000001
600,-0.42183000000000004,-0.1962,-11.09511
601,-0.42183000000000004,-0.1962,-11.09511
602,-0.42183000000000004,-0.1962,-11.09511
603,-0.41202000000000005,-0.05886,-10.02582
604,-0.41202000000000005,-0.05886,-10.02582
605,-0.34335000000000004,-0.44145000000000006,-11.928960000000002
606,-0.34335000000000004,-0.44145000000000006,-11.928960000000002
607,-0.51012,-0.08829000000000001,-10.02582
608,-0.51012,-0.08829000000000001,-10.02582
609,-0.51012,-0.08829000000000001,-10.02582
610,-0.31392000000000003,0.009810000000000001,-10.310310000000001
611,-0.31392000000000003,0.009810000000000001,-10.310310000000001
612,-0.22563000000000002,0.019620000000000002,-11.20302
613,-0.22563000000000002,0.019620000000000002,-11.20302
614,-0.22563000000000002,0.019620000000000002,-11.20302
615,-0.33354,0.28449,-10.104300000000002
616,-0.33354,0.28449,-10.104300000000002
617,-0.15696000000000002,0.05886,-9.67266
618,-0.24525,0.15696000000000002,-10.63404
619,-0.24525,0.15696000000000002,-10.63404
620,-0.24525,0.15696000000000002,-10.63404
621,-0.16677,0.10791000000000002,-10.3986
622,-0.16677,0.10791000000000002,-10.3986
623,-0.16677,0.10791000000000002,-10.3986
624,-0.10791000000000002,0.009810000000000001,-9.191970000000001
625,-0.10791000000000002,0.009810000000000001,-9.191970000000001
626,-0.10791000000000002,0.009810000000000001,-9.191970000000001
627,-0.11772,0.039240000000000004,-10.555560000000002
628,-0.11772,0.039240000000000004,-10.555560000000002
629,-0.18639000000000003,0.30411000000000005,-9.2214
630,-0.18639000000000003,0.30411000000000005,-9.2214
631,-0.10791000000000002,0.08829000000000001,-9.10368
632,-0.10791000000000002,0.08829000000000001,-9.10368
633,-0.10791000000000002,0.08829000000000001,-9.10368
634,-0.15696000000000002,0.019620000000000002,-9.721710000000002
635,-0.15696000000000002,0.019620000000000002,-9.721710000000002
636,-0.07848000000000001,0.17658000000000001,-10.12392
637,-0.07848000000000001,0.17658000000000001,-10.12392
638,-0.16677,0.11772,-11.673900000000001
639,-0.16677,0.11772,-11.673900000000001
640,-0.16677,0.11772,-11.673900000000001
641,-0.05886,0.11772,-8.946720000000001
642,-0.05886,0.11772,-8.946720000000001
643,-0.05886,0.11772,-8.946720000000001
644,-0.13734000000000002,0.08829000000000001,-11.33055
645,-0.10791000000000002,0.04905,-9.80019
646,-0.10791000000000002,0.04905,-9.80019
647,-0.10791000000000002,0.04905,-9.80019
648,-0.04905,0.11772,-10.202399999999999
649,-0.04905,0.11772,-10.202399999999999
650,0.04905,0.08829000000000001,-10.3986
651,0.04905,0.08829000000000001,-10.3986
652,0.04905,0.08829000000000001,-10.3986
653,-0.04905,0.12753,-9.28026
654,-0.04905,0.12753,-9.28026
655,0.039240000000000004,-0.14715,-8.97615
656,0.039240000000000004,-0.14715,-8.97615
657,0.039240000000000004,-0.14715,-8.97615
658,0.0981,-0.15696000000000002,-10.01601
659,0.0981,-0.15696000000000002,-10.01601
660,0.0981,-0.15696000000000002,-10.01601
661,-0.04905,-0.039240000000000004,-9.898290000000001
662,-0.04905,-0.039240000000000004,-9.898290000000001
663,-0.009810000000000001,0.06867000000000001,-10.104300000000002
664,-0.009810000000000001,0.06867000000000001,-10.104300000000002
665,-0.04905,0.25506,-9.94734
666,-0.04905,0.25506,-9.94734
667,-0.04905,0.25506,-9.94734
668,-0.32373,0.07848000000000001,-10.06506
669,-0.32373,0.07848000000000001,-10.06506
670,-0.32373,0.07848000000000001,-10.06506
671,-0.28449,-0.0981,-10.96758
672,-0.38259000000000004,0.26487,-8.917290000000001
673,-0.38259000000000004,0.26487,-8.917290000000001
674,-0.27468000000000004,0.14715,-9.23121
675,-0.27468000000000004,0.14715,-9.23121
676,-0.27468000000000004,0.14715,-9.23121
677,-0.28449,0.17658000000000001,-9.79038
678,-0.28449,0.17658000000000001,-9.79038
679,-0.34335000000000004,0.07848000000000001,-8.40717
680,-0.34335000000000004,0.07848000000000001,-8.40717
681,-0.34335000000000004,0.07848000000000001,-8.40717
682,-0.30411000000000005,-0.15696000000000002,-8.779950000000001
683,-0.30411000000000005,-0.15696000000000002,-8.779950000000001
684,-0.34335000000000004,-0.04905,-8.96634
685,-0.34335000000000004,-0.04905,-8.96634
686,-0.50031,0.06867000000000001,-9.80019
687,-0.50031,0.06867000000000001,-9.80019
688,-0.42183000000000004,0.14715,-8.887860000000002
689,-0.42183000000000004,0.14715,-8.887860000000002
690,-0.42183000000000004,0.14715,-8.887860000000002
691,-0.5591700000000001,0.05886,-8.878050000000002
692,-0.5591700000000001,0.05886,-8.878050000000002
693,-0.5591700000000001,0.05886,-8.878050000000002
694,-0.51012,-0.10791000000000002,-9.80019
695,-0.51012,-0.10791000000000002,-9.80019
696,-0.5199300000000001,-0.11772,-9.191970000000001
697,-0.5199300000000001,-0.11772,-9.191970000000001
698,-0.5787900000000001,0.07848000000000001,-9.25083
699,-0.5787900000000001,0.07848000000000001,-9.25083
700,-0.5787900000000001,0.07848000000000001,-9.25083
701,-0.46107000000000004,-0.27468000000000004,-9.751140000000001
702,-0.46107000000000004,-0.27468000000000004,-9.751140000000001
703,-0.34335000000000004,-0.20601000000000003,-9.996390000000002
704,-0.34335000000000004,-0.20601000000000003,-9.996390000000002
705,-0.34335000000000004,-0.20601000000000003,-9.996390000000002
706,-0.44145000000000006,0.17658000000000001,-9.476460000000001
707,-0.44145000000000006,0.17658000000000001,-9.476460000000001
708,-0.44145000000000006,0.22563000000000002,-9.79038
709,-0.44145000000000006,0.22563000000000002,-9.79038
710,-0.45126000000000005,0.039240000000000004,-10.58499
711,-0.45126000000000005,0.039240000000000004,-10.58499
712,-0.45126000000000005,0.039240000000000004,-10.58499
713,-0.51012,-0.05886,-10.329930000000001
714,-0.51012,-0.05886,-10.329930000000001
715,-0.5787900000000001,-0.04905,-10.12392
716,-0.5787900000000001,-0.04905,-10.12392
717,-0.6278400000000001,-0.32373,-9.339120000000001
718,-0.6278400000000001,-0.32373,-9.339120000000001
719,-0.6278400000000001,-0.32373,-9.339120000000001
720,-0.6867000000000001,0.039240000000000004,-9.56475
721,-0.6867000000000001,0.039240000000000004,-9.56475
722,-0.6376499999999999,0.44145000000000006,-9.4176
723,-0.6376499999999999,0.44145000000000006,-9.4176
724,-0.6376499999999999,0.44145000000000006,-9.4176
725,-0.6376499999999999,0.44145000000000006,-9.4176
726,-0.5199300000000001,0.21582000000000004,-6.611940000000001
727,-0.5199300000000001,0.21582000000000004,-6.611940000000001
728,-0.3924,-0.5395500000000001,-9.917910000000001
729,-0.3924,-0.5395500000000001,-9.917910000000001
730,-0.4316400000000001,-0.13734000000000002,-8.779950000000001
731,-0.4316400000000001,-0.13734000000000002,-8.779950000000001
732,-0.50031,0.0,-9.780569999999999
733,-0.50031,0.0,-9.780569999999999
734,-0.50031,0.0,-9.780569999999999
735,-0.4905,0.039240000000000004,-9.1233
736,-0.4905,0.039240000000000004,-9.1233
737,-0.5199300000000001,0.3924,-9.27045
738,-0.5199300000000001,0.3924,-9.27045
739,-0.5199300000000001,0.3924,-9.27045
740,-0.5787900000000001,0.32373,-10.02582
741,-0.5787900000000001,-0.039240000000000004,-10.202399999999999
742,-0.5787900000000001,-0.039240000000000004,-10.202399999999999
743,-0.5787900000000001,-0.039240000000000004,-10.202399999999999
744,-0.56898,-0.06867000000000001,-10.3986
745,-0.56898,-0.06867000000000001,-10.3986
746,-0.56898,-0.06867000000000001,-10.3986
747,-0.6376499999999999,0.06867000000000001,-10.34955
748,-0.6376499999999999,0.06867000000000001,-10.34955
749,-0.75537,0.039240000000000004,-11.840670000000001
750,-0.75537,0.039240000000000004,-11.840670000000001
751,-0.75537,0.039240000000000004,-11.840670000000001
752,-0.75537,0.039240000000000004,-11.840670000000001
753,-0.5493600000000001,-0.67689,-11.359980000000002
754,-0.5493600000000001,-0.67689,-11.359980000000002
755,-0.5493600000000001,-0.67689,-11.359980000000002
756,-0.5493600000000001,-0.67689,-11.359980000000002
757,-0.5493600000000001,-0.67689,-11.359980000000002
758,-0.5493600000000001,-0.67689,-11.359980000000002
759,-0.3924,0.07848000000000001,-9.56475
760,-0.3924,0.07848000000000001,-9.56475
761,-0.3924,0.07848000000000001,-9.56475
762,-0.3924,0.07848000000000001,-9.56475
763,-0.3924,0.07848000000000001,-9.56475
764,-0.34335000000000004,-0.12753,-10.280880000000002
765,-0.34335000000000004,-0.12753,-10.280880000000002
766,-0.34335000000000004,-0.12753,-10.280880000000002
767,-0.34335000000000004,-0.12753,-10.280880000000002
768,-0.34335000000000004,-0.12753,-10.280880000000002
769,-0.4316400000000001,-0.05886,-9.908100000000001
770,-0.4316400000000001,-0.05886,-9.908100000000001
771,-0.4316400000000001,-0.05886,-9.908100000000001
772,-0.4316400000000001,-0.05886,-9.908100000000001
773,-0.4316400000000001,-0.05886,-9.908100000000001
774,-0.3924,0.019620000000000002,-8.7309
775,-0.3924,0.019620000000000002,-8.7309
776,-0.3924,0.019620000000000002,-8.7309
777,-0.3924,0.019620000000000002,-8.7309
778,-0.3924,0.019620000000000002,-8.7309
779,-0.33354,0.05886,-10.89891
780,-0.33354,0.05886,-10.89891
781,-0.33354,0.05886,-10.89891
782,-0.33354,0.05886,-10.89891
783,-0.33354,0.05886,-10.89891
784,-0.40221000000000007,-0.48069,-9.613800000000001
785,-0.40221000000000007,-0.48069,-9.613800000000001
786,-0.40221000000000007,-0.48069,-9.613800000000001
787,-0.40221000000000007,-0.48069,-9.613800000000001
788,-0.40221000000000007,-0.48069,-9.613800000000001
789,-0.18639000000000003,0.67689,-10.72233
790,-0.18639000000000003,0.67689,-10.72233
791,-0.18639000000000003,0.67689,-10.72233
792,-0.18639000000000003,0.67689,-10.72233
793,-0.4905,-0.08829000000000001,-10.12392
794,-0.4905,-0.08829000000000001,-10.12392
795,-0.4905,-0.08829000000000001,-10.12392
796,-0.4905,-0.08829000000000001,-10.12392
797,-0.4905,-0.08829000000000001,-10.12392
798,-0.4905,-0.08829000000000001,-10.12392
799,-0.6082200000000001,-0.12753,-9.98658
800,-0.6082200000000001,-0.12753,-9.98658
801,-0.6082200000000001,-0.12753,-9.98658
802,-0.6082200000000001,-0.12753,-9.98658
803,-0.6082200000000001,-0.12753,-9.98658
804,-0.51012,0.08829000000000001,-10.58499
805,-0.51012,0.08829000000000001,-10.58499
806,-0.51012,0.08829000000000001,-10.58499
807,-0.51012,0.08829000000000001,-10.58499
808,-0.41202000000000005,0.13734000000000002,-9.201780000000001
809,-0.41202000000000005,0.13734000000000002,-9.201780000000001
810,-0.41202000000000005,0.13734000000000002,-9.201780000000001
811,-0.41202000000000005,0.13734000000000002,-9.201780000000001
812,-0.41202000000000005,0.13734000000000002,-9.201780000000001
813,-0.41202000000000005,0.13734000000000002,-9.201780000000001
814,-0.37278000000000006,0.15696000000000002,-9.064440000000001
815,-0.37278000000000006,0.15696000000000002,-9.064440000000001
816,-0.28449,-0.10791000000000002,-9.751140000000001
817,-0.28449,-0.10791000000000002,-9.751140000000001
818,-0.36297,0.05886,-9.731520000000002
819,-0.36297,0.05886,-9.731520000000002
820,-0.36297,0.05886,-9.731520000000002
821,-0.4316400000000001,-0.06867000000000001,-9.59418
822,-0.4316400000000001,-0.06867000000000001,-9.59418
823,-0.47088,0.21582000000000004,-9.46665
824,-0.47088,0.21582000000000004,-9.46665
825,-0.44145000000000006,0.10791000000000002,-9.36855
826,-0.44145000000000006,0.10791000000000002,-9.36855
827,-0.44145000000000006,0.10791000000000002,-9.36855
828,-0.3924,-0.15696000000000002,-9.613800000000001
829,-0.3924,-0.15696000000000002,-9.613800000000001
830,-0.3924,-0.15696000000000002,-9.613800000000001
831,-0.31392000000000003,-0.009810000000000001,-8.85843
832,-0.31392000000000003,-0.009810000000000001,-8.85843
833,-0.32373,0.21582000000000004,-9.054630000000001
834,-0.32373,0.21582000000000004,-9.054630000000001
835,-0.1962,-0.16677,-9.38817
836,-0.1962,-0.16677,-9.38817
837,-0.1962,-0.16677,-9.38817
838,-0.25506,0.13734000000000002,-9.42741
839,-0.25506,0.13734000000000002,-9.42741
840,-0.33354,0.23544,-9.69228
841,-0.33354,0.23544,-9.69228
842,-0.33354,0.23544,-9.69228
843,-0.26487,0.17658000000000001,-8.67204
844,-0.26487,0.17658000000000001,-8.67204
845,-0.14715,-0.30411000000000005,-9.95715
846,-0.14715,-0.30411000000000005,-9.95715
847,-0.16677,-0.12753,-9.29007
848,-0.16677,-0.12753,-9.29007
849,-0.16677,-0.12753,-9.29007
850,-0.07848000000000001,-0.019620000000000002,-9.4176
851,-0.07848000000000001,-0.019620000000000002,-9.4176
852,-0.07848000000000001,-0.019620000000000002,-9.4176
853,-0.23544,-0.10791000000000002,-9.38817
854,-0.23544,-0.10791000000000002,-9.38817
855,-0.1962,0.05886,-9.064440000000001
856,-0.1962,0.05886,-9.064440000000001
857,-0.26487,0.16677,-10.104300000000002
858,-0.26487,0.16677,-10.104300000000002
859,-0.2943,0.039240000000000004,-11.10492
860,-0.2943,0.039240000000000004,-11.10492
861,-0.2943,0.039240000000000004,-11.10492
862,-0.28449,-0.009810000000000001,-11.163780000000001
863,-0.28449,-0.009810000000000001,-11.163780000000001
864,-0.28449,-0.009810000000000001,-11.163780000000001
865,-0.11772,-0.24525,-10.92834
866,-0.0981,-0.21582000000000004,-10.77138
867,-0.0981,-0.21582000000000004,-10.77138
868,-0.0981,-0.21582000000000004,-10.77138
869,-0.08829000000000001,0.32373,-10.48689
870,-0.08829000000000001,0.32373,-10.48689
871,0.0,0.45126000000000005,-10.565370000000001
872,0.0,0.45126000000000005,-10.565370000000001
873,0.0,0.45126000000000005,-10.565370000000001
874,-0.15696000000000002,0.11772,-9.760950000000001
875,-0.15696000000000002,0.11772,-9.760950000000001
876,-0.06867000000000001,-0.13734000000000002,-10.800810000000002
877,-0.06867000000000001,-0.13734000000000002,-10.800810000000002
878,-0.12753,0.02943,-9.52551
879,-0.12753,0.02943,-9.52551
880,-0.12753,0.02943,-9.52551
881,0.009810000000000001,0.22563000000000002,-9.613800000000001
882,0.009810000000000001,0.22563000000000002,-9.613800000000001
883,0.039240000000000004,0.08829000000000001,-10.526130000000002
884,0.039240000000000004,0.08829000000000001,-10.526130000000002
885,0.039240000000000004,0.08829000000000001,-10.526130000000002
886,0.0,-0.16677,-10.045440000000001
887,0.0,-0.16677,-10.045440000000001
888,-0.0981,0.02943,-12.04668
889,-0.0981,0.02943,-12.04668
890,-0.04905,0.08829000000000001,-9.966960000000002
891,-0.04905,0.08829000000000001,-9.966960000000002
892,-0.04905,0.08829000000000001,-9.966960000000002
893,0.10791000000000002,-0.07848000000000001,-9.35874
894,0.10791000000000002,-0.07848000000000001,-9.35874
895,0.0,0.02943,-10.83024
896,0.0,0.02943,-10.83024
897,0.0,0.02943,-10.83024
898,0.0,0.10791000000000002,-8.740710000000002
899,0.0,0.10791000000000002,-8.740710000000002
900,-0.009810000000000001,-0.04905,-13.26312
901,-0.009810000000000001,-0.04905,-13.26312
902,-0.009810000000000001,-0.04905,-13.26312
903,0.0981,0.44145000000000006,-8.7309
904,0.0981,0.44145000000000006,-8.7309
905,0.17658000000000001,0.42183000000000004,-9.760950000000001
906,0.17658000000000001,0.42183000000000004,-9.760950000000001
907,0.17658000000000001,0.42183000000000004,-9.760950000000001
908,0.11772,0.11772,-11.17359
909,0.11772,0.11772,-11.17359
910,0.11772,-0.34335000000000004,-9.46665
911,0.11772,-0.34335000000000004,-9.46665
912,0.14715,-0.2943,-10.77138
913,0.14715,-0.2943,-10.77138
914,0.13734000000000002,0.07848000000000001,-10.35936
915,0.13734000000000002,0.07848000000000001,-10.35936
916,0.13734000000000002,0.07848000000000001,-10.35936
917,0.13734000000000002,0.28449,-8.41698
918,0.13734000000000002,0.28449,-8.41698
919,0.13734000000000002,0.28449,-8.41698
920,0.07848000000000001,0.20601000000000003,-8.62299
921,0.07848000000000001,0.20601000000000003,-8.62299
922,0.009810000000000001,0.23544,-9.54513
923,0.009810000000000001,0.23544,-9.54513
924,0.009810000000000001,0.23544,-9.54513
925,0.0,-0.14715,-10.428030000000001
926,0.0,-0.14715,-10.428030000000001
927,-0.11772,-0.36297,-11.32074
928,-0.11772,-0.36297,-11.32074
929,-0.12753,0.16677,-9.260640000000002
930,-0.12753,0.16677,-9.260640000000002
931,-0.12753,0.16677,-9.260640000000002
932,-0.07848000000000001,0.35316000000000003,-8.46603
933,-0.1962,0.16677,-8.46603
934,-0.1962,0.16677,-8.46603
935,-0.1962,0.16677,-8.46603
936,-0.15696000000000002,0.019620000000000002,-9.682470000000002
937,-0.15696000000000002,0.019620000000000002,-9.682470000000002
938,-0.15696000000000002,0.019620000000000002,-9.682470000000002
939,-0.25506,0.14715,-8.95653
940,-0.25506,0.14715,-8.95653
941,-0.31392000000000003,0.32373,-7.485030000000001
942,-0.31392000000000003,0.32373,-7.485030000000001
943,-0.32373,-0.38259000000000004,-11.56599
944,-0.32373,-0.38259000000000004,-11.56599
945,-0.32373,-0.38259000000000004,-11.56599
946,-0.46107000000000004,-0.04905,-9.29007
947,-0.46107000000000004,-0.04905,-9.29007
948,-0.46107000000000004,-0.04905,-9.29007
949,-0.45126000000000005,-0.06867000000000001,-9.476460000000001
950,-0.5886,0.17658000000000001,-10.428030000000001
951,-0.5886,0.17658000000000001,-10.428030000000001
952,-0.5886,0.17658000000000001,-10.428030000000001
953,-0.45126000000000005,-0.11772,-10.47708
954,-0.45126000000000005,-0.11772,-10.47708
955,-0.5199300000000001,0.23544,-9.339120000000001
956,-0.5199300000000001,0.23544,-9.339120000000001
957,-0.5199300000000001,0.23544,-9.339120000000001
958,-0.56898,0.16677,-8.84862
959,-0.56898,0.16677,-8.84862
960,-0.40221000000000007,-0.4316400000000001,-10.732140000000001
961,-0.40221000000000007,-0.4316400000000001,-10.732140000000001
962,-0.40221000000000007,-0.4316400000000001,-10.732140000000001
963,-0.47088,-0.009810000000000001,-9.56475
964,-0.47088,-0.009810000000000001,-9.56475
965,-0.5493600000000001,0.05886,-8.829
966,-0.5493600000000001,0.05886,-8.829
967,-0.5493600000000001,0.05886,-8.829
968,-0.5787900000000001,0.039240000000000004,-8.71128
969,-0.5787900000000001,0.039240000000000004,-8.71128
970,-0.5984100000000001,0.08829000000000001,-9.60399
971,-0.5984100000000001,0.08829000000000001,-9.60399
972,-0.5787900000000001,-0.07848000000000001,-10.241640000000002
973,-0.5787900000000001,-0.07848000000000001,-10.241640000000002
974,-0.71613,0.039240000000000004,-10.75176
975,-0.71613,0.039240000000000004,-10.75176
976,-0.71613,0.039240000000000004,-10.75176
977,-0.7651800000000001,-0.019620000000000002,-9.770760000000001
978,-0.7651800000000001,-0.019620000000000002,-9.770760000000001
979,-0.7651800000000001,-0.019620000000000002,-9.770760000000001
980,-0.81423,0.24525,-10.06506
981,-0.81423,0.24525,-10.06506
982,-0.7749900000000001,0.22563000000000002,-9.309690000000002
983,-0.7749900000000001,0.22563000000000002,-9.309690000000002
984,-0.8436600000000001,-0.14715,-10.90872
985,-0.8436600000000001,-0.14715,-10.90872
986,-0.81423,0.0,-9.35874
987,-0.81423,0.0,-9.35874
988,-0.81423,0.0,-9.35874
989,-0.8044200000000001,-0.10791000000000002,-9.64323
990,-0.8044200000000001,-0.10791000000000002,-9.64323
991,-0.7651800000000001,-0.20601000000000003,-10.594800000000001
992,-0.7651800000000001,-0.20601000000000003,-10.594800000000001
993,-0.7651800000000001,-0.20601000000000003,-10.594800000000001
994,-0.7455600000000001,-0.10791000000000002,-8.84862
995,-0.7455600000000001,-0.10791000000000002,-8.84862
996,-0.81423,0.15696000000000002,-8.68185
997,-0.81423,0.15696000000000002,-8.68185
998,-0.81423,0.15696000000000002,-8.68185
999,-0.75537,-0.13734000000000002,-8.770140000000001
1000,-0.75537,-0.13734000000000002,-8.770140000000001
1001,-0.7455600000000001,0.31392000000000003,-9.95715
1002,-0.7455600000000001,0.31392000000000003,-9.95715
1003,-0.8240400000000001,0.51012,-9.682470000000002
1004,-0.8240400000000001,0.51012,-9.682470000000002
1005,-0.8240400000000001,0.51012,-9.682470000000002
1006,-0.67689,-0.23544,-9.83943
1007,-0.67689,-0.23544,-9.83943
1008,-0.67689,-0.23544,-9.83943
1009,-0.64746,-0.36297,-9.3195
1010,-0.64746,-0.36297,-9.3195
1011,-0.69651,-0.25506,-9.24102
1012,-0.69651,-0.25506,-9.24102
1013,-0.7848,0.019620000000000002,-9.98658
1014,-0.7848,0.019620000000000002,-9.98658
1015,-0.73575,0.44145000000000006,-9.721710000000002
1016,-0.73575,0.44145000000000006,-9.721710000000002
1017,-0.73575,0.44145000000000006,-9.721710000000002
1018,-0.71613,0.039240000000000004,-10.02582
1019,-0.71613,0.039240000000000004,-10.02582
1020,-0.71613,0.039240000000000004,-10.02582
1021,-0.8436600000000001,0.16677,-9.721710000000002
1022,-0.8436600000000001,0.16677,-9.721710000000002
1023,-0.8534700000000001,-0.37278000000000006,-9.83943
1024,-0.8534700000000001,-0.37278000000000006,-9.83943
1025,-0.8240400000000001,-0.31392000000000003,-11.00682
1026,-0.8240400000000001,-0.31392000000000003,-11.00682
1027,-0.8338500000000001,0.07848000000000001,-9.054630000000001
1028,-0.8338500000000001,0.07848000000000001,-9.054630000000001
1029,-0.8338500000000001,0.07848000000000001,-9.054630000000001
1030,-0.87309,-0.019620000000000002,-10.23183
1031,-0.87309,-0.019620000000000002,-10.23183
1032,-0.75537,0.009810000000000001,-9.36855
1033,-0.75537,0.009810000000000001,-9.36855
1034,-0.75537,-0.3924,-9.37836
1035,-0.75537,-0.3924,-9.37836
1036,-0.75537,-0.3924,-9.37836
1037,-0.67689,-0.40221000000000007,-10.01601
1038,-0.67689,-0.40221000000000007,-10.01601
1039,-0.67689,-0.40221000000000007,-10.01601
1040,-0.67689,-0.51012,-11.38941
1041,-0.67689,-0.51012,-11.38941
1042,-0.6867000000000001,0.44145000000000006,-8.456220000000002
1043,-0.6867000000000001,0.44145000000000006,-8.456220000000002
1044,-0.6867000000000001,0.44145000000000006,-8.456220000000002
1045,-0.6376499999999999,0.05886,-7.04358
1046,-0.7455600000000001,-0.13734000000000002,-10.21221
1047,-0.7455600000000001,-0.13734000000000002,-10.21221
1048,-0.7455600000000001,-0.13734000000000002,-10.21221
1049,-0.72594,-0.009810000000000001,-9.81
1050,-0.72594,-0.009810000000000001,-9.81
1051,-0.72594,-0.009810000000000001,-9.81
1052,-0.75537,0.0981,-10.143540000000002
1053,-0.75537,0.0981,-10.143540000000002
1054,-0.79461,-0.06867000000000001,-11.07549
1055,-0.79461,-0.06867000000000001,-11.07549
1056,-0.981,0.15696000000000002,-9.17235
1057,-0.981,0.15696000000000002,-9.17235
1058,-0.8829000000000001,-0.1962,-10.68309
1059,-0.8829000000000001,-0.1962,-10.68309
1060,-0.8829000000000001,-0.1962,-10.68309
1061,-0.81423,0.04905,-8.779950000000001
1062,-0.81423,0.04905,-8.779950000000001
1063,-0.7848,0.009810000000000001,-10.938150000000002
1064,-0.7848,0.009810000000000001,-10.938150000000002
1065,-0.7848,0.009810000000000001,-10.938150000000002
1066,-0.75537,0.009810000000000001,-9.42741
1067,-0.75537,0.009810000000000001,-9.42741
1068,-0.8044200000000001,0.16677,-10.104300000000002
1069,-0.8044200000000001,0.16677,-10.104300000000002
1070,-0.8044200000000001,0.16677,-10.104300000000002
1071,-0.73575,0.02943,-10.07487
1072,-0.73575,0.02943,-10.07487
1073,-0.69651,-0.5493600000000001,-9.496080000000001
1074,-0.69651,-0.5493600000000001,-9.496080000000001
1075,-0.69651,-0.33354,-9.299880000000002
1076,-0.69651,-0.33354,-9.299880000000002
1077,-0.69651,-0.33354,-9.299880000000002
1078,-0.65727,-0.08829000000000001,-9.03501
1079,-0.65727,-0.08829000000000001,-9.03501
1080,-0.67689,-0.14715,-10.96758
1081,-0.67689,-0.14715,-10.96758
1082,-0.67689,-0.14715,-10.96758
1083,-0.8240400000000001,0.23544,-8.210970000000001
1084,-0.8240400000000001,0.23544,-8.210970000000001
1085,-0.75537,0.08829000000000001,-9.80019
1086,-0.75537,0.08829000000000001,-9.80019
1087,-0.7455600000000001,0.04905,-9.819810000000002
1088,-0.7455600000000001,0.04905,-9.819810000000002
1089,-0.7455600000000001,0.04905,-9.819810000000002
1090,-0.7749900000000001,-0.20601000000000003,-10.290690000000001
1091,-0.7749900000000001,-0.20601000000000003,-10.290690000000001
1092,-0.8240400000000001,0.02943,-10.01601
1093,-0.8240400000000001,0.02943,-10.01601
1094,-0.8338500000000001,-0.2943,-10.58499
1095,-0.8338500000000001,-0.2943,-10.58499
1096,-0.8338500000000001,-0.2943,-10.58499
1097,-0.8044200000000001,0.009810000000000001,-8.99577
1098,-0.8044200000000001,0.009810000000000001,-8.99577
1099,-0.8044200000000001,0.009810000000000001,-8.99577
1100,-0.87309,0.20601000000000003,-9.97677
1101,-0.87309,0.20601000000000003,-9.97677
1102,-0.8240400000000001,-0.11772,-10.840050000000002
1103,-0.8240400000000001,-0.11772,-10.840050000000002
1104,-0.72594,0.20601000000000003,-8.03439
1105,-0.72594,0.20601000000000003,-8.03439
1106,-0.67689,-0.02943,-10.889100000000001
1107,-0.67689,-0.02943,-10.889100000000001
1108,-0.67689,-0.02943,-10.889100000000001
1109,-0.7063200000000001,0.08829000000000001,-9.074250000000001
1110,-0.7063200000000001,0.08829000000000001,-9.074250000000001
1111,-0.7063200000000001,0.08829000000000001,-9.074250000000001
1112,-0.5886,-0.22563000000000002,-9.201780000000001
1113,-0.5886,-0.22563000000000002,-9.201780000000001
1114,-0.6180300000000001,0.18639000000000003,-8.456220000000002
1115,-0.6180300000000001,0.18639000000000003,-8.456220000000002
1116,-0.52974,-0.25506,-8.80938
1117,-0.52974,-0.25506,-8.80938
1118,-0.5984100000000001,-0.11772,-8.878050000000002
1119,-0.5984100000000001,-0.11772,-8.878050000000002
1120,-0.5984100000000001,-0.11772,-8.878050000000002
1121,-0.6376499999999999,0.34335000000000004,-7.80876
1122,-0.6376499999999999,0.34335000000000004,-7.80876
1123,-0.5591700000000001,-0.23544,-10.045440000000001
1124,-0.5591700000000001,-0.23544,-10.045440000000001
1125,-0.5591700000000001,-0.23544,-10.045440000000001
1126,-0.56898,-0.16677,-10.61442
1127,-0.56898,-0.16677,-10.61442
1128,-0.51012,-0.24525,-10.36917
1129,-0.51012,-0.24525,-10.36917
1130,-0.51012,-0.24525,-10.36917
1131,-0.51012,-0.24525,-10.36917
1132,-0.51012,-0.24525,-10.36917
1133,-0.51012,-0.24525,-10.36917
1134,-0.52974,-0.2943,-9.888480000000001
1135,-0.52974,-0.2943,-9.888480000000001
1136,-0.52974,-0.2943,-9.888480000000001
1137,-0.52974,-0.2943,-9.888480000000001
1138,-0.64746,0.0981,-10.53594
1139,-0.64746,0.0981,-10.53594
1140,-0.64746,0.0981,-10.53594
1141,-0.64746,0.0981,-10.53594
1142,-0.64746,0.0981,-10.53594
1143,-0.5493600000000001,-0.07848000000000001,-9.613800000000001
1144,-0.5493600000000001,-0.07848000000000001,-9.613800000000001
1145,-0.5493600000000001,-0.07848000000000001,-9.613800000000001
1146,-0.5493600000000001,-0.07848000000000001,-9.613800000000001
1147,-0.5493600000000001,-0.07848000000000001,-9.613800000000001
1148,-0.4905,0.0,-9.81
1149,-0.4905,0.0,-9.81
1150,-0.4905,0.0,-9.81
1151,-0.4905,0.0,-9.81
1152,-0.4905,0.0,-9.81
1153,-0.47088,0.019620000000000002,-9.60399
1154,-0.47088,0.019620000000000002,-9.60399
1155,-0.47088,0.019620000000000002,-9.60399
1156,-0.47088,0.019620000000000002,-9.60399
1157,-0.47088,0.019620000000000002,-9.60399
1158,-0.3924,0.07848000000000001,-9.55494
1159,-0.3924,0.07848000000000001,-9.55494
1160,-0.3924,0.07848000000000001,-9.55494
1161,-0.3924,0.07848000000000001,-9.55494
1162,-0.3924,0.07848000000000001,-9.55494
1163,-0.3924,-0.08829000000000001,-9.56475
1164,-0.3924,-0.08829000000000001,-9.56475
1165,-0.3924,-0.08829000000000001,-9.56475
1166,-0.3924,-0.08829000000000001,-9.56475
1167,-0.3924,-0.08829000000000001,-9.56475
1168,-0.35316000000000003,0.0,-11.772
1169,-0.35316000000000003,0.0,-11.772
1170,-0.35316000000000003,0.0,-11.772
1171,-0.35316000000000003,0.0,-11.772
1172,-0.35316000000000003,0.0,-11.772
1173,-0.4905,-0.019620000000000002,-10.153350000000001
1174,-0.4905,-0.019620000000000002,-10.153350000000001
1175,-0.4905,-0.019620000000000002,-10.153350000000001
1176,-0.4905,-0.019620000000000002,-10.153350000000001
1177,-0.4905,-0.019620000000000002,-10.153350000000001
1178,-0.31392000000000003,0.21582000000000004,-8.18154
1179,-0.31392000000000003,0.21582000000000004,-8.18154
1180,-0.31392000000000003,0.21582000000000004,-8.18154
1181,-0.31392000000000003,0.21582000000000004,-8.18154
1182,-0.31392000000000003,0.21582000000000004,-8.18154
1183,-0.28449,0.17658000000000001,-10.045440000000001
1184,-0.28449,0.17658000000000001,-10.045440000000001
1185,-0.28449,0.17658000000000001,-10.045440000000001
1186,-0.28449,0.17658000000000001,-10.045440000000001
1187,-0.28449,0.17658000000000001,-10.045440000000001
1188,-0.14715,-0.039240000000000004,-9.613800000000001
1189,-0.14715,-0.039240000000000004,-9.613800000000001
1190,-0.14715,-0.039240000000000004,-9.613800000000001
1191,-0.14715,-0.039240000000000004,-9.613800000000001
1192,-0.14715,-0.039240000000000004,-9.613800000000001
1193,-0.10791000000000002,0.16677,-11.17359
1194,-0.10791000000000002,0.16677,-11.17359
1195,-0.10791000000000002,0.16677,-11.17359
1196,-0.10791000000000002,0.16677,-11.17359
1197,-0.10791000000000002,0.16677,-11.17359
1198,0.009810000000000001,-0.02943,-10.006200000000002
1199,0.009810000000000001,-0.02943,-10.006200000000002
1200,0.009810000000000001,-0.02943,-10.006200000000002
1201,0.009810000000000001,-0.02943,-10.006200000000002
1202,0.009810000000000001,-0.02943,-10.006200000000002
1203,0.10791000000000002,-0.15696000000000002,-10.3986
1204,0.10791000000000002,-0.15696000000000002,-10.3986
1205,0.10791000000000002,-0.15696000000000002,-10.3986
1206,0.10791000000000002,-0.15696000000000002,-10.3986
1207,0.10791000000000002,-0.15696000000000002,-10.3986
1208,-0.019620000000000002,0.21582000000000004,-11.14416
1209,-0.019620000000000002,0.21582000000000004,-11.14416
1210,-0.019620000000000002,0.21582000000000004,-11.14416
1211,-0.019620000000000002,0.21582000000000004,-11.14416
1212,-0.019620000000000002,0.21582000000000004,-11.14416
1213,0.009810000000000001,-0.21582000000000004,-11.997630000000001
1214,0.009810000000000001,-0.21582000000000004,-11.997630000000001
1215,0.009810000000000001,-0.21582000000000004,-11.997630000000001
1216,0.009810000000000001,-0.21582000000000004,-11.997630000000001
1217,0.009810000000000001,-0.21582000000000004,-11.997630000000001
1218,0.1962,0.37278000000000006,-10.594800000000001
1219,0.1962,0.37278000000000006,-10.594800000000001
1220,0.1962,0.37278000000000006,-10.594800000000001
1221,0.1962,0.37278000000000006,-10.594800000000001
1222,0.1962,0.37278000000000006,-10.594800000000001
1223,0.28449,0.0,-9.437220000000002
1224,0.28449,0.0,-9.437220000000002
1225,0.28449,0.0,-9.437220000000002
1226,0.28449,0.0,-9.437220000000002
1227,0.28449,0.0,-9.437220000000002
1228,0.18639000000000003,0.08829000000000001,-9.83943
1229,0.18639000000000003,0.08829000000000001,-9.83943
1230,0.18639000000000003,0.08829000000000001,-9.83943
1231,0.18639000000000003,0.08829000000000001,-9.83943
1232,0.18639000000000003,0.08829000000000001,-9.83943
1233,0.36297,-0.04905,-9.13311
1234,0.36297,-0.04905,-9.13311
1235,0.36297,-0.04905,-9.13311
1236,0.36297,-0.04905,-9.13311
1237,0.36297,-0.04905,-9.13311
1238,0.40221000000000007,-0.0981,-8.878050000000002
1239,0.40221000000000007,-0.0981,-8.878050000000002
1240,0.40221000000000007,-0.0981,-8.878050000000002
1241,0.40221000000000007,-0.0981,-8.878050000000002
1242,0.40221000000000007,-0.0981,-8.878050000000002
1243,0.34335000000000004,-0.06867000000000001,-8.42679
1244,0.34335000000000004,-0.06867000000000001,-8.42679
1245,0.34335000000000004,-0.06867000000000001,-8.42679
1246,0.34335000000000004,-0.06867000000000001,-8.42679
1247,0.34335000000000004,-0.06867000000000001,-8.42679
1248,0.44145000000000006,-0.02943,-9.329310000000001
1249,0.44145000000000006,-0.02943,-9.329310000000001
1250,0.44145000000000006,-0.02943,-9.329310000000001
1251,0.44145000000000006,-0.02943,-9.329310000000001
1252,0.28449,1.05948,-10.594800000000001
1253,0.28449,1.05948,-10.594800000000001
1254,0.28449,1.05948,-10.594800000000001
1255,0.28449,1.05948,-10.594800000000001
1256,0.28449,1.05948,-10.594800000000001
1257,0.28449,1.05948,-10.594800000000001
1258,0.37278000000000006,0.039240000000000004,-12.79224
1259,0.37278000000000006,0.039240000000000004,-12.79224
1260,0.37278000000000006,0.039240000000000004,-12.79224
1261,0.37278000000000006,0.039240000000000004,-12.79224
1262,0.37278000000000006,0.039240000000000004,-12.79224
1263,-0.06867000000000001,-0.18639000000000003,-10.89891
1264,-0.06867000000000001,-0.18639000000000003,-10.89891
1265,-0.06867000000000001,-0.18639000000000003,-10.89891
1266,-0.06867000000000001,0.08829000000000001,-11.134350000000001
1267,-0.06867000000000001,0.08829000000000001,-11.134350000000001
1268,-0.36297,-0.25506,-11.06568
1269,-0.36297,-0.25506,-11.06568
1270,-0.42183000000000004,0.44145000000000006,-9.69228
1271,-0.42183000000000004,0.44145000000000006,-9.69228
1272,-0.42183000000000004,0.44145000000000006,-9.69228
1273,-0.44145000000000006,0.41202000000000005,-9.819810000000002
1274,-0.44145000000000006,0.41202000000000005,-9.819810000000002
1275,-0.38259000000000004,0.0,-8.927100000000001
1276,-0.38259000000000004,0.0,-8.927100000000001
1277,-0.38259000000000004,0.0,-8.927100000000001
1278,-0.51012,-0.2943,-10.055250000000001
1279,-0.51012,-0.2943,-10.055250000000001
1280,-0.46107000000000004,0.019620000000000002,-8.603370000000002
1281,-0.46107000000000004,0.019620000000000002,-8.603370000000002
1282,-0.40221000000000007,0.06867000000000001,-8.48565
1283,-0.40221000000000007,0.06867000000000001,-8.48565
1284,-0.40221000000000007,0.06867000000000001,-8.48565
1285,-0.24525,0.20601000000000003,-8.632800000000001
1286,-0.24525,0.20601000000000003,-8.632800000000001
1287,-0.22563000000000002,0.25506,-9.42741
1288,-0.22563000000000002,0.25506,-9.42741
1289,-0.26487,-0.14715,-7.89705
1290,-0.26487,-0.14715,-7.89705
1291,-0.26487,-0.14715,-7.89705
1292,-0.31392000000000003,0.07848000000000001,-10.280880000000002
1293,-0.31392000000000003,0.07848000000000001,-10.280880000000002
1294,-0.31392000000000003,0.07848000000000001,-10.280880000000002
1295,-0.26487,-0.37278000000000006,-9.53532
1296,-0.26487,-0.37278000000000006,-9.53532
1297,-0.5886,-0.26487,-8.97615
1298,-0.5886,-0.26487,-8.97615
1299,-0.5886,-0.26487,-8.97615
1300,-0.5493600000000001,0.34335000000000004,-9.191970000000001
1301,-0.5493600000000001,0.34335000000000004,-9.191970000000001
1302,-0.7455600000000001,0.40221000000000007,-11.38941
1303,-0.7455600000000001,0.40221000000000007,-11.38941
1304,-0.6376499999999999,0.8338500000000001,-11.00682
1305,-0.6376499999999999,0.8338500000000001,-11.00682
1306,-0.64746,-0.25506,-8.47584
1307,-0.64746,-0.25506,-8.47584
1308,-0.64746,-0.25506,-8.47584
1309,-0.7848,-0.48069,-8.829
1310,-0.7848,-0.48069,-8.829
1311,-0.87309,-0.07848000000000001,-10.320120000000001
1312,-0.87309,-0.07848000000000001,-10.320120000000001
1313,-0.7455600000000001,0.0981,-10.09449
1314,-0.7455600000000001,0.0981,-10.09449
1315,-0.7455600000000001,0.0981,-10.09449
1316,-0.8240400000000001,0.22563000000000002,-10.526130000000002
1317,-0.8240400000000001,0.22563000000000002,-10.526130000000002
1318,-0.8240400000000001,0.22563000000000002,-10.526130000000002
1319,-0.6278400000000001,0.1962,-7.61256
1320,-0.6278400000000001,0.1962,-7.61256
1321,-0.8436600000000001,-0.0981,-12.15459
1322,-0.8436600000000001,-0.0981,-12.15459
1323,-0.8240400000000001,-0.019620000000000002,-10.68309
1324,-0.8240400000000001,-0.019620000000000002,-10.68309
1325,-0.8240400000000001,-0.019620000000000002,-10.68309
1326,-0.69651,-0.17658000000000001,-10.133730000000002
1327,-0.69651,-0.17658000000000001,-10.133730000000002
1328,-0.66708,-0.28449,-8.220780000000001
1329,-0.66708,-0.28449,-8.220780000000001
1330,-0.66708,-0.28449,-8.220780000000001
1331,-0.6867000000000001,-0.24525,-8.887860000000002
1332,-0.71613,-0.18639000000000003,-10.75176
1333,-0.71613,-0.18639000000000003,-10.75176
1334,-0.71613,-0.18639000000000003,-10.75176
1335,-0.7749900000000001,0.18639000000000003,-8.90748
1336,-0.7749900000000001,0.18639000000000003,-8.90748
1337,-0.71613,-0.22563000000000002,-9.3195
1338,-0.71613,-0.22563000000000002,-9.3195
1339,-0.71613,-0.22563000000000002,-9.3195
1340,-0.71613,-0.22563000000000002,-9.3195
1341,-0.7749900000000001,0.12753,-9.27045
1342,-0.7749900000000001,0.12753,-9.27045
1343,-0.8240400000000001,0.36297,-8.69166
1344,-0.8240400000000001,0.36297,-8.69166
1345,-0.7651800000000001,-0.35316000000000003,-9.574560000000002
1346,-0.7651800000000001,-0.35316000000000003,-9.574560000000002
1347,-0.7749900000000001,-0.24525,-9.770760000000001
1348,-0.7749900000000001,-0.24525,-9.770760000000001
1349,-0.7749900000000001,-0.24525,-9.770760000000001
1350,-0.7848,0.13734000000000002,-9.682470000000002
1351,-0.7848,0.13734000000000002,-9.682470000000002
1352,-0.8044200000000001,0.08829000000000001,-9.40779
1353,-0.8044200000000001,0.08829000000000001,-9.40779
1354,-0.8338500000000001,0.12753,-9.42741
1355,-0.8338500000000001,0.12753,-9.42741
1356,-0.8338500000000001,0.12753,-9.42741
1357,-0.8338500000000001,0.12753,-9.42741
1358,-0.8338500000000001,-0.06867000000000001,-9.95715
1359,-0.7848,-0.21582000000000004,-9.819810000000002
1360,-0.7848,-0.21582000000000004,-9.819810000000002
1361,-0.7848,-0.21582000000000004,-9.819810000000002
1362,-0.8829000000000001,0.039240000000000004,-10.153350000000001
1363,-0.8829000000000001,0.039240000000000004,-10.153350000000001
1364,-0.8240400000000001,-0.04905,-9.45684
1365,-0.8240400000000001,-0.04905,-9.45684
1366,-0.8436600000000001,-0.18639000000000003,-10.143540000000002
1367,-0.8436600000000001,-0.18639000000000003,-10.143540000000002
1368,-0.8436600000000001,-0.18639000000000003,-10.143540000000002
1369,-0.8044200000000001,0.17658000000000001,-9.917910000000001
1370,-0.8044200000000001,0.17658000000000001,-9.917910000000001
1371,-0.87309,0.18639000000000003,-9.682470000000002
1372,-0.87309,0.18639000000000003,-9.682470000000002
1373,-0.72594,-0.05886,-9.348930000000001
1374,-0.72594,-0.05886,-9.348930000000001
1375,-0.72594,-0.05886,-9.348930000000001
1376,-0.87309,-0.25506,-10.329930000000001
1377,-0.87309,-0.25506,-10.329930000000001
1378,-0.87309,0.019620000000000002,-10.741950000000001
1379,-0.87309,0.019620000000000002,-10.741950000000001
1380,-0.87309,0.019620000000000002,-10.741950000000001
1381,-0.8338500000000001,-0.34335000000000004,-9.496080000000001
1382,-0.8338500000000001,-0.34335000000000004,-9.496080000000001
1383,-0.94176,0.0,-11.301120000000001
1384,-0.94176,0.0,-11.301120000000001
1385,-0.94176,0.0,-11.301120000000001
1386,-0.9025200000000001,0.039240000000000004,-9.760950000000001
1387,-0.9025200000000001,0.039240000000000004,-9.760950000000001
1388,-0.9319500000000001,0.36297,-9.898290000000001
1389,-0.9319500000000001,0.36297,-9.898290000000001
1390,-0.81423,-0.009810000000000001,-10.43784
1391,-0.81423,-0.009810000000000001,-10.43784
1392,-0.81423,-0.009810000000000001,-10.43784
1393,-0.8044200000000001,-0.04905,-7.5929400000000005
1394,-0.8044200000000001,-0.04905,-7.5929400000000005
1395,-0.87309,-0.17658000000000001,-10.53594
1396,-0.87309,-0.17658000000000001,-10.53594
1397,-0.87309,-0.17658000000000001,-10.53594
1398,-0.8829000000000001,-0.27468000000000004,-9.015390000000002
1399,-0.8829000000000001,-0.27468000000000004,-9.015390000000002
1400,-1.03005,-0.08829000000000001,-11.693520000000001
1401,-1.03005,-0.08829000000000001,-11.693520000000001
1402,-1.03005,0.34335000000000004,-8.32869
1403,-1.03005,0.34335000000000004,-8.32869
1404,-1.03005,0.34335000000000004,-8.32869
1405,-0.9908100000000001,-0.25506,-10.07487
1406,-0.9908100000000001,-0.25506,-10.07487
1407,-0.9319500000000001,-0.13734000000000002,-12.409650000000001
1408,-0.9319500000000001,-0.13734000000000002,-12.409650000000001
1409,-0.9319500000000001,-0.13734000000000002,-12.409650000000001
1410,-0.87309,-0.15696000000000002,-10.72233
1411,-0.87309,-0.15696000000000002,-10.72233
1412,-0.89271,0.26487,-8.2404
1413,-0.89271,0.26487,-8.2404
1414,-0.81423,0.04905,-8.789760000000001
1415,-0.81423,0.04905,-8.789760000000001
1416,-0.81423,0.04905,-8.789760000000001
1417,-0.9123300000000001,-0.31392000000000003,-11.409030000000001
1418,-0.9123300000000001,-0.31392000000000003,-11.409030000000001
1419,-0.8436600000000001,0.31392000000000003,-5.93505
1420,-0.8436600000000001,0.31392000000000003,-5.93505
1421,-0.8436600000000001,0.31392000000000003,-5.93505
1422,-0.8534700000000001,-0.13734000000000002,-8.68185
1423,-0.8534700000000001,-0.13734000000000002,-8.68185
1424,-0.9221400000000001,-0.25506,-9.95715
1425,-0.9221400000000001,-0.25506,-9.95715
1426,-0.9221400000000001,-0.25506,-9.95715
1427,-0.79461,0.20601000000000003,-7.7989500000000005
1428,-0.79461,0.20601000000000003,-7.7989500000000005
1429,-0.8632800000000002,0.1962,-9.054630000000001
1430,-0.8632800000000002,0.1962,-9.054630000000001
1431,-0.8338500000000001,-0.26487,-9.496080000000001
1432,-0.8338500000000001,-0.26487,-9.496080000000001
1433,-0.8338500000000001,-0.26487,-9.496080000000001
1434,-0.6867000000000001,0.009810000000000001,-9.66285
1435,-0.6867000000000001,0.009810000000000001,-9.66285
1436,-0.75537,0.05886,-8.75052
1437,-0.75537,0.05886,-8.75052
1438,-0.8829000000000001,0.1962,-9.56475
1439,-0.8829000000000001,0.1962,-9.56475
1440,-0.8829000000000001,0.1962,-9.56475
1441,-0.7651800000000001,-0.1962,-10.741950000000001
1442,-0.7651800000000001,-0.1962,-10.741950000000001
1443,-0.7848,-0.14715,-10.4967
1444,-0.7848,-0.14715,-10.4967
1445,-0.8436600000000001,-0.05886,-7.749900000000001
1446,-0.8436600000000001,-0.05886,-7.749900000000001
1447,-0.8436600000000001,-0.05886,-7.749900000000001
1448,-0.79461,-0.31392000000000003,-10.96758
1449,-0.79461,-0.31392000000000003,-10.96758
1450,-0.79461,-0.31392000000000003,-10.96758
1451,-0.79461,-0.21582000000000004,-11.24226
1452,-0.79461,-0.21582000000000004,-11.24226
1453,-0.8240400000000001,0.06867000000000001,-10.565370000000001
1454,-0.8240400000000001,0.06867000000000001,-10.565370000000001
1455,-0.8338500000000001,0.10791000000000002,-10.555560000000002
1456,-0.8338500000000001,0.10791000000000002,-10.555560000000002
1457,-0.8436600000000001,0.08829000000000001,-10.11411
1458,-0.8436600000000001,0.08829000000000001,-10.11411
1459,-0.8436600000000001,0.08829000000000001,-10.11411
1460,-0.7848,-0.11772,-9.996390000000002
1461,-0.7848,-0.11772,-9.996390000000002
1462,-0.7848,-0.11772,-9.996390000000002
1463,-0.7455600000000001,0.0,-10.11411
1464,-0.7455600000000001,0.0,-10.11411
1465,-0.7455600000000001,-0.26487,-9.80019
1466,-0.7455600000000001,-0.26487,-9.80019
1467,-0.67689,-0.26487,-9.27045
1468,-0.67689,-0.26487,-9.27045
1469,-0.67689,-0.26487,-9.27045
1470,-0.79461,0.17658000000000001,-9.898290000000001
1471,-0.79461,0.17658000000000001,-9.898290000000001
1472,-0.65727,-0.36297,-10.27107
1473,-0.65727,-0.36297,-10.27107
1474,-0.6376499999999999,0.009810000000000001,-8.18154
1475,-0.6376499999999999,0.009810000000000001,-8.18154
1476,-0.6376499999999999,0.009810000000000001,-8.18154
1477,-0.6278400000000001,-0.10791000000000002,-9.025200000000002
1478,-0.6278400000000001,-0.10791000000000002,-9.025200000000002
1479,-0.8240400000000001,0.21582000000000004,-11.359980000000002
1480,-0.8240400000000001,0.21582000000000004,-11.359980000000002
1481,-0.8240400000000001,0.21582000000000004,-11.359980000000002
1482,-0.66708,0.039240000000000004,-9.37836
1483,-0.66708,0.039240000000000004,-9.37836
1484,-0.8044200000000001,0.07848000000000001,-9.81
1485,-0.8044200000000001,0.07848000000000001,-9.81
1486,-0.73575,-0.0981,-10.07487
1487,-0.73575,-0.0981,-10.07487
1488,-0.73575,-0.0981,-10.07487
1489,-0.64746,-0.20601000000000003,-10.08468
1490,-0.64746,-0.20601000000000003,-10.08468
1491,-0.6278400000000001,-0.0981,-9.65304
1492,-0.6278400000000001,-0.0981,-9.65304
1493,-0.71613,0.04905,-10.202399999999999
1494,-0.71613,0.04905,-10.202399999999999
1495,-0.71613,0.04905,-10.202399999999999
1496,-0.71613,0.14715,-10.27107
1497,-0.71613,0.14715,-10.27107
1498,-0.71613,0.14715,-10.27107
1499,-0.64746,0.15696000000000002,-10.21221
1500,-0.64746,0.15696000000000002,-10.21221
1501,-0.6082200000000001,-0.019620000000000002,-10.34955
1502,-0.6082200000000001,-0.019620000000000002,-10.34955
1503,-0.6082200000000001,-0.019620000000000002,-10.34955
1504,-0.6180300000000001,-0.039240000000000004,-10.182780000000001
1505,-0.5591700000000001,-0.04905,-9.70209
1506,-0.5591700000000001,-0.04905,-9.70209
1507,-0.6278400000000001,0.18639000000000003,-10.06506
1508,-0.6278400000000001,0.18639000000000003,-10.06506
1509,-0.6278400000000001,0.18639000000000003,-10.06506
1510,-0.6278400000000001,0.18639000000000003,-10.06506
1511,-0.6278400000000001,0.18639000000000003,-10.06506
1512,-0.6278400000000001,0.18639000000000003,-10.06506
1513,-0.5984100000000001,-0.02943,-9.868860000000002
1514,-0.5984100000000001,-0.02943,-9.868860000000002
1515,-0.5984100000000001,-0.02943,-9.868860000000002
1516,-0.5984100000000001,-0.02943,-9.868860000000002
1517,-0.5984100000000001,-0.02943,-9.868860000000002
1518,-0.5493600000000001,-0.07848000000000001,-9.82962
1519,-0.5493600000000001,-0.07848000000000001,-9.82962
1520,-0.5493600000000001,-0.07848000000000001,-9.82962
1521,-0.5493600000000001,-0.07848000000000001,-9.82962
1522,-0.5493600000000001,-0.07848000000000001,-9.82962
1523,-0.5493600000000001,-0.07848000000000001,-9.82962
1524,-0.41202000000000005,0.0,-9.859050000000002
1525,-0.41202000000000005,0.0,-9.859050000000002
1526,-0.41202000000000005,0.0,-9.859050000000002
1527,-0.40221000000000007,-0.33354,-10.54575
1528,-0.40221000000000007,-0.33354,-10.54575
1529,-0.40221000000000007,-0.33354,-10.54575
1530,-0.40221000000000007,-0.33354,-10.54575
1531,-0.40221000000000007,-0.33354,-10.54575
1532,-0.40221000000000007,-0.33354,-10.54575
1533,-0.2943,0.0,-9.59418
1534,-0.2943,0.0,-9.59418
1535,-0.2943,0.0,-9.59418
1536,-0.2943,0.0,-9.59418
1537,-0.2943,0.0,-9.59418
1538,-0.35316000000000003,0.10791000000000002,-9.46665
1539,-0.35316000000000003,0.10791000000000002,-9.46665
1540,-0.35316000000000003,0.10791000000000002,-9.46665
1541,-0.35316000000000003,0.10791000000000002,-9.46665
1542,-0.35316000000000003,0.10791000000000002,-9.46665
1543,-0.1962,-0.009810000000000001,-8.69166
1544,-0.1962,-0.009810000000000001,-8.69166
1545,-0.1962,-0.009810000000000001,-8.69166
1546,-0.1962,-0.009810000000000001,-8.69166
1547,-0.1962,-0.009810000000000001,-8.69166
1548,-0.14715,0.15696000000000002,-9.40779
1549,-0.14715,0.15696000000000002,-9.40779
1550,-0.14715,0.15696000000000002,-9.40779
1551,-0.14715,0.15696000000000002,-9.40779
1552,-0.14715,0.15696000000000002,-9.40779
1553,-0.26487,0.12753,-10.06506
1554,-0.26487,0.12753,-10.06506
1555,-0.26487,0.12753,-10.06506
1556,-0.26487,0.12753,-10.06506
1557,-0.26487,0.12753,-10.06506
1558,-0.24525,-0.3924,-10.977390000000002
1559,-0.24525,-0.3924,-10.977390000000002
1560,-0.24525,-0.3924,-10.977390000000002
1561,-0.24525,-0.3924,-10.977390000000002
1562,-0.24525,-0.3924,-10.977390000000002
1563,-0.08829000000000001,0.10791000000000002,-10.33974
1564,-0.08829000000000001,0.10791000000000002,-10.33974
1565,-0.08829000000000001,0.10791000000000002,-10.33974
1566,-0.11772,0.27468000000000004,-9.03501
1567,-0.11772,0.27468000000000004,-9.03501
1568,-0.14715,0.23544,-10.09449
1569,-0.14715,0.23544,-10.09449
1570,-0.06867000000000001,-0.009810000000000001,-10.61442
1571,-0.06867000000000001,-0.009810000000000001,-10.61442
1572,-0.06867000000000001,-0.009810000000000001,-10.61442
1573,-0.06867000000000001,-0.07848000000000001,-10.40841
1574,-0.06867000000000001,-0.07848000000000001,-10.40841
1575,-0.07848000000000001,0.0,-10.035630000000001
1576,-0.07848000000000001,0.0,-10.035630000000001
1577,-0.07848000000000001,0.0,-10.035630000000001
1578,0.0,0.07848000000000001,-10.320120000000001
1579,-0.05886,-0.13734000000000002,-10.045440000000001
1580,-0.05886,-0.13734000000000002,-10.045440000000001
1581,-0.05886,-0.13734000000000002,-10.045440000000001
1582,-0.0981,0.1962,-11.09511
1583,-0.0981,0.1962,-11.09511
1584,0.0,0.15696000000000002,-9.54513
1585,0.0,0.15696000000000002,-9.54513
1586,0.0,0.15696000000000002,-9.54513
1587,-0.009810000000000001,-0.07848000000000001,-9.574560000000002
1588,-0.009810000000000001,-0.07848000000000001,-9.574560000000002
1589,-0.009810000000000001,-0.07848000000000001,-9.574560000000002
1590,-0.12753,-0.14715,-10.810620000000002
1591,-0.12753,-0.14715,-10.810620000000002
1592,-0.019620000000000002,0.23544,-10.34955
1593,-0.019620000000000002,0.23544,-10.34955
1594,0.039240000000000004,-0.019620000000000002,-9.25083
1595,0.039240000000000004,-0.019620000000000002,-9.25083
1596,0.039240000000000004,-0.019620000000000002,-9.25083
1597,0.019620000000000002,0.039240000000000004,-10.035630000000001
1598,0.019620000000000002,0.039240000000000004,-10.035630000000001
1599,0.019620000000000002,0.039240000000000004,-10.035630000000001
1600,0.0,-0.17658000000000001,-10.977390000000002
1601,0.0,-0.17658000000000001,-10.977390000000002
1602,0.12753,0.13734000000000002,-10.63404
1603,0.12753,0.13734000000000002,-10.63404
1604,0.019620000000000002,0.33354,-8.946720000000001
1605,0.019620000000000002,0.33354,-8.946720000000001
1606,0.009810000000000001,0.33354,-10.08468
1607,0.009810000000000001,0.33354,-10.08468
1608,-0.07848000000000001,-0.16677,-10.89891
1609,-0.07848000000000001,-0.16677,-10.89891
1610,-0.07848000000000001,-0.16677,-10.89891
1611,-0.0981,0.27468000000000004,-9.17235
1612,-0.0981,0.27468000000000004,-9.17235
1613,-0.12753,0.05886,-9.476460000000001
1614,-0.12753,0.05886,-9.476460000000001
1615,-0.12753,0.05886,-9.476460000000001
1616,-0.06867000000000001,-0.07848000000000001,-9.966960000000002
1617,-0.06867000000000001,-0.07848000000000001,-9.966960000000002
1618,-0.06867000000000001,-0.07848000000000001,-9.966960000000002
1619,-0.12753,-0.14715,-9.66285
1620,-0.12753,-0.14715,-9.66285
1621,-0.019620000000000002,-0.07848000000000001,-9.908100000000001
1622,-0.019620000000000002,-0.07848000000000001,-9.908100000000001
1623,-0.019620000000000002,0.05886,-9.17235
1624,-0.019620000000000002,0.05886,-9.17235
1625,-0.14715,0.30411000000000005,-8.829
1626,-0.14715,0.30411000000000005,-8.829
1627,-0.14715,0.30411000000000005,-8.829
1628,-0.07848000000000001,0.05886,-9.36855
1629,-0.07848000000000001,0.05886,-9.36855
1630,-0.05886,0.41202000000000005,-7.955910000000001
1631,-0.05886,0.41202000000000005,-7.955910000000001
1632,-0.21582000000000004,0.16677,-9.14292
1633,-0.21582000000000004,0.16677,-9.14292
1634,-0.21582000000000004,0.16677,-9.14292
1635,-0.12753,-0.18639000000000003,-9.29007
1636,-0.12753,-0.18639000000000003,-9.29007
1637,-0.15696000000000002,-0.1962,-9.868860000000002
1638,-0.15696000000000002,-0.1962,-9.868860000000002
1639,-0.15696000000000002,-0.1962,-9.868860000000002
1640,-0.21582000000000004,0.0981,-9.074250000000001
1641,-0.21582000000000004,0.0981,-9.074250000000001
1642,-0.21582000000000004,0.0981,-9.074250000000001
1643,-0.30411000000000005,0.15696000000000002,-9.13311
1644,-0.30411000000000005,0.15696000000000002,-9.13311
1645,-0.28449,0.06867000000000001,-9.70209
1646,-0.28449,0.06867000000000001,-9.70209
1647,-0.36297,0.1962,-9.14292
1648,-0.36297,0.1962,-9.14292
1649,-0.32373,0.18639000000000003,-11.271690000000001
1650,-0.32373,0.18639000000000003,-11.271690000000001
1651,-0.32373,0.18639000000000003,-11.271690000000001
1652,-0.1962,-0.07848000000000001,-9.908100000000001
1653,-0.1962,-0.07848000000000001,-9.908100000000001
1654,-0.34335000000000004,0.15696000000000002,-9.780569999999999
1655,-0.34335000000000004,0.15696000000000002,-9.780569999999999
1656,-0.34335000000000004,0.15696000000000002,-9.780569999999999
1657,-0.3924,0.20601000000000003,-10.055250000000001
1658,-0.3924,0.20601000000000003,-10.055250000000001
1659,-0.42183000000000004,0.009810000000000001,-10.21221
1660,-0.42183000000000004,0.009810000000000001,-10.21221
1661,-0.42183000000000004,0.009810000000000001,-10.21221
1662,-0.42183000000000004,-0.04905,-10.3005
1663,-0.42183000000000004,-0.04905,-10.3005
1664,-0.4905,-0.15696000000000002,-10.378980000000002
1665,-0.4905,-0.15696000000000002,-10.378980000000002
1666,-0.5395500000000001,0.019620000000000002,-9.70209
1667,-0.5395500000000001,0.019620000000000002,-9.70209
1668,-0.5395500000000001,0.019620000000000002,-9.70209
1669,-0.5395500000000001,0.17658000000000001,-10.035630000000001
1670,-0.5395500000000001,0.17658000000000001,-10.035630000000001
1671,-0.3924,-0.009810000000000001,-10.40841
1672,-0.3924,-0.009810000000000001,-10.40841
1673,-0.36297,-0.08829000000000001,-10.16316
1674,-0.36297,-0.08829000000000001,-10.16316
1675,-0.36297,-0.08829000000000001,-10.16316
1676,-0.28449,-0.08829000000000001,-10.27107
1677,-0.28449,-0.08829000000000001,-10.27107
1678,-0.34335000000000004,0.009810000000000001,-9.751140000000001
1679,-0.34335000000000004,0.009810000000000001,-9.751140000000001
1680,-0.34335000000000004,0.009810000000000001,-9.751140000000001
1681,-0.32373,-0.039240000000000004,-9.38817
1682,-0.32373,-0.039240000000000004,-9.38817
1683,-0.24525,-0.38259000000000004,-9.633420000000001
1684,-0.24525,-0.38259000000000004,-9.633420000000001
1685,-0.1962,-0.0981,-9.84924
1686,-0.1962,-0.0981,-9.84924
1687,-0.26487,0.0,-8.42679
1688,-0.26487,0.0,-8.42679
1689,-0.26487,0.0,-8.42679
1690,-0.22563000000000002,0.31392000000000003,-9.084060000000001
1691,-0.22563000000000002,0.31392000000000003,-9.084060000000001
1692,-0.15696000000000002,0.18639000000000003,-9.4176
1693,-0.15696000000000002,0.18639000000000003,-9.4176
1694,-0.15696000000000002,0.18639000000000003,-9.4176
1695,-0.14715,0.019620000000000002,-10.58499
1696,-0.14715,0.019620000000000002,-10.58499
1697,-0.22563000000000002,-0.04905,-8.642610000000001
1698,-0.22563000000000002,-0.04905,-8.642610000000001
1699,-0.21582000000000004,0.0981,-9.37836
1700,-0.21582000000000004,0.0981,-9.37836
1701,-0.21582000000000004,0.0981,-9.37836
1702,-0.15696000000000002,0.21582000000000004,-10.310310000000001
1703,-0.15696000000000002,0.21582000000000004,-10.310310000000001
1704,-0.11772,0.14715,-9.888480000000001
1705,-0.11772,0.14715,-9.888480000000001
1706,-0.20601000000000003,0.14715,-9.447030000000002
1707,-0.20601000000000003,0.14715,-9.447030000000002
1708,-0.20601000000000003,0.14715,-9.447030000000002
1709,-0.27468000000000004,-0.02943,-11.693520000000001
1710,-0.27468000000000004,-0.02943,-11.693520000000001
1711,-0.27468000000000004,-0.02943,-11.693520000000001
1712,-0.27468000000000004,0.019620000000000002,-10.045440000000001
1713,-0.27468000000000004,0.019620000000000002,-10.045440000000001
1714,-0.27468000000000004,0.019620000000000002,-10.045440000000001
1715,-0.41202000000000005,0.24525,-10.977390000000002
1716,-0.3924,0.71613,-9.29007
1717,-0.3924,0.71613,-9.29007
1718,-0.3924,-0.039240000000000004,-10.457460000000001
1719,-0.3924,-0.039240000000000004,-10.457460000000001
1720,-0.3924,-0.039240000000000004,-10.457460000000001
1721,-0.36297,-0.10791000000000002,-10.732140000000001
1722,-0.36297,-0.10791000000000002,-10.732140000000001
1723,-0.36297,-0.10791000000000002,-10.732140000000001
1724,-0.27468000000000004,-0.22563000000000002,-10.33974
1725,-0.27468000000000004,-0.22563000000000002,-10.33974
1726,-0.20601000000000003,-0.18639000000000003,-11.25207
1727,-0.20601000000000003,-0.18639000000000003,-11.25207
1728,-0.25506,0.1962,-8.84862
1729,-0.25506,0.1962,-8.84862
1730,-0.25506,0.1962,-8.84862
1731,-0.28449,0.33354,-7.9362900000000005
1732,-0.28449,0.33354,-7.9362900000000005
1733,-0.30411000000000005,0.06867000000000001,-9.09387
1734,-0.30411000000000005,0.06867000000000001,-9.09387
1735,-0.30411000000000005,0.06867000000000001,-9.09387
1736,-0.25506,0.11772,-9.496080000000001
1737,-0.25506,0.11772,-9.496080000000001
1738,-0.25506,0.22563000000000002,-9.60399
1739,-0.25506,0.22563000000000002,-9.60399
1740,-0.1962,-0.0981,-9.770760000000001
1741,-0.1962,-0.0981,-9.770760000000001
1742,-0.1962,-0.0981,-9.770760000000001
1743,-0.18639000000000003,-0.1962,-9.888480000000001
1744,-0.18639000000000003,-0.1962,-9.888480000000001
1745,-0.18639000000000003,-0.1962,-9.888480000000001
1746,-0.18639000000000003,-0.08829000000000001,-10.82043
1747,-0.18639000000000003,-0.08829000000000001,-10.82043
1748,-0.25506,0.26487,-9.201780000000001
1749,-0.25506,0.26487,-9.201780000000001
1750,-0.42183000000000004,-0.04905,-10.712520000000001
1751,-0.42183000000000004,-0.04905,-10.712520000000001
1752,-0.42183000000000004,-0.04905,-10.712520000000001
1753,-0.42183000000000004,-0.04905,-10.712520000000001
1754,-0.46107000000000004,0.13734000000000002,-9.780569999999999
1755,-0.44145000000000006,-0.06867000000000001,-9.574560000000002
1756,-0.44145000000000006,-0.06867000000000001,-9.574560000000002
1757,-0.5787900000000001,0.08829000000000001,-9.74133
1758,-0.5787900000000001,0.08829000000000001,-9.74133
1759,-0.5787900000000001,0.08829000000000001,-9.74133
1760,-0.56898,0.0,-9.35874
1761,-0.56898,0.0,-9.35874
1762,-0.56898,0.0,-9.35874
1763,-0.64746,0.02943,-10.172970000000001
1764,-0.48069,-0.40221000000000007,-11.183400000000002
1765,-0.48069,-0.40221000000000007,-11.183400000000002
1766,-0.48069,-0.40221000000000007,-11.183400000000002
1767,-0.5493600000000001,0.10791000000000002,-9.74133
1768,-0.5493600000000001,0.10791000000000002,-9.74133
1769,-0.42183000000000004,-0.18639000000000003,-9.70209
1770,-0.42183000000000004,-0.18639000000000003,-9.70209
1771,-0.42183000000000004,-0.18639000000000003,-9.70209
1772,-0.5199300000000001,0.07848000000000001,-9.908100000000001
1773,-0.5199300000000001,0.07848000000000001,-9.908100000000001
1774,-0.40221000000000007,-0.08829000000000001,-8.652420000000001
1775,-0.40221000000000007,-0.08829000000000001,-8.652420000000001
1776,-0.47088,0.08829000000000001,-10.63404
1777,-0.47088,0.08829000000000001,-10.63404
1778,-0.47088,0.08829000000000001,-10.63404
1779,-0.5199300000000001,0.13734000000000002,-8.642610000000001
1780,-0.5199300000000001,0.13734000000000002,-8.642610000000001
1781,-0.37278000000000006,-0.02943,-9.623610000000001
1782,-0.37278000000000006,-0.02943,-9.623610000000001
1783,-0.37278000000000006,-0.02943,-9.623610000000001
1784,-0.4316400000000001,0.16677,-9.074250000000001
1785,-0.4316400000000001,0.16677,-9.074250000000001
1786,-0.34335000000000004,0.0,-9.633420000000001
1787,-0.34335000000000004,0.0,-9.633420000000001
1788,-0.46107000000000004,0.11772,-9.917910000000001
1789,-0.46107000000000004,0.11772,-9.917910000000001
1790,-0.46107000000000004,0.11772,-9.917910000000001
1791,-0.5199300000000001,-0.13734000000000002,-9.98658
1792,-0.5199300000000001,-0.13734000000000002,-9.98658
1793,-0.5199300000000001,-0.13734000000000002,-9.98658
1794,-0.6278400000000001,0.039240000000000004,-10.67328
1795,-0.6278400000000001,0.039240000000000004,-10.67328
1796,-0.65727,0.17658000000000001,-9.29007
1797,-0.65727,0.17658000000000001,-9.29007
1798,-0.5886,-0.12753,-10.987200000000001
1799,-0.5886,-0.12753,-10.987200000000001
1800,-0.5787900000000001,-0.04905,-10.172970000000001
1801,-0.5787900000000001,-0.04905,-10.172970000000001
1802,-0.5787900000000001,-0.04905,-10.172970000000001
1803,-0.50031,-0.0981,-9.751140000000001
1804,-0.50031,-0.0981,-9.751140000000001
1805,-0.50031,-0.0981,-9.751140000000001
1806,-0.5787900000000001,0.16677,-9.859050000000002
1807,-0.5787900000000001,0.16677,-9.859050000000002
1808,-0.5886,0.20601000000000003,-9.1233
1809,-0.5886,0.20601000000000003,-9.1233
1810,-0.6376499999999999,0.20601000000000003,-9.623610000000001
1811,-0.6376499999999999,0.20601000000000003,-9.623610000000001
1812,-0.56898,0.10791000000000002,-9.348930000000001
1813,-0.56898,0.10791000000000002,-9.348930000000001
1814,-0.56898,0.10791000000000002,-9.348930000000001
1815,-0.5787900000000001,0.26487,-8.66223
1816,-0.5787900000000001,0.26487,-8.66223
1817,-0.5787900000000001,0.26487,-8.66223
1818,-0.7063200000000001,0.13734000000000002,-9.633420000000001
1819,-0.7063200000000001,0.13734000000000002,-9.633420000000001
1820,-0.6278400000000001,0.18639000000000003,-10.104300000000002
1821,-0.6278400000000001,0.18639000000000003,-10.104300000000002
1822,-0.6278400000000001,0.25506,-8.26002
1823,-0.6278400000000001,0.25506,-8.26002
1824,-0.6278400000000001,0.25506,-8.26002
1825,-0.73575,-0.019620000000000002,-10.54575
1826,-0.73575,-0.019620000000000002,-10.54575
1827,-0.66708,-0.38259000000000004,-10.104300000000002
1828,-0.66708,-0.38259000000000004,-10.104300000000002
1829,-0.66708,-0.38259000000000004,-10.104300000000002
1830,-0.66708,-0.38259000000000004,-10.104300000000002
1831,-0.5787900000000001,-0.33354,-10.202399999999999
1832,-0.5886,0.0981,-9.966960000000002
1833,-0.5886,0.0981,-9.966960000000002
1834,-0.5591700000000001,-0.14715,-9.67266
1835,-0.5591700000000001,-0.14715,-9.67266
1836,-0.52974,0.0981,-8.75052
1837,-0.52974,0.0981,-8.75052
1838,-0.52974,0.0981,-8.75052
1839,-0.46107000000000004,0.10791000000000002,-9.56475
1840,-0.46107000000000004,0.10791000000000002,-9.56475
1841,-0.46107000000000004,0.10791000000000002,-9.56475
1842,-0.40221000000000007,0.07848000000000001,-8.02458
1843,-0.40221000000000007,0.07848000000000001,-8.02458
1844,-0.40221000000000007,-0.02943,-8.89767
1845,-0.40221000000000007,-0.02943,-8.89767
1846,-0.4316400000000001,-0.10791000000000002,-9.13311
1847,-0.4316400000000001,-0.10791000000000002,-9.13311
1848,-0.37278000000000006,0.0,-9.260640000000002
1849,-0.37278000000000006,0.0,-9.260640000000002
1850,-0.37278000000000006,0.0,-9.260640000000002
1851,-0.47088,0.26487,-8.2404
1852,-0.47088,0.26487,-8.2404
1853,-0.35316000000000003,-0.009810000000000001,-10.594800000000001
1854,-0.35316000000000003,-0.009810000000000001,-10.594800000000001
1855,-0.35316000000000003,-0.009810000000000001,-10.594800000000001
1856,-0.45126000000000005,0.12753,-9.80019
1857,-0.45126000000000005,0.12753,-9.80019
1858,-0.5787900000000001,-0.16677,-10.467270000000001
1859,-0.5787900000000001,-0.16677,-10.467270000000001
1860,-0.5787900000000001,-0.16677,-10.467270000000001
1861,-0.4905,0.42183000000000004,-8.927100000000001
1862,-0.4905,0.42183000000000004,-8.927100000000001
1863,-0.45126000000000005,0.02943,-11.683710000000001
1864,-0.45126000000000005,0.02943,-11.683710000000001
1865,-0.41202000000000005,0.14715,-10.12392
1866,-0.41202000000000005,0.14715,-10.12392
1867,-0.41202000000000005,0.14715,-10.12392
1868,-0.5787900000000001,0.13734000000000002,-10.63404
1869,-0.5787900000000001,0.13734000000000002,-10.63404
1870,-0.48069,-0.18639000000000003,-10.64385
1871,-0.48069,-0.18639000000000003,-10.64385
1872,-0.5395500000000001,-0.25506,-11.997630000000001
1873,-0.5395500000000001,-0.25506,-11.997630000000001
1874,-0.5395500000000001,-0.25506,-11.997630000000001
1875,-0.50031,0.0,-10.78119
1876,-0.50031,0.0,-10.78119
1877,-0.5493600000000001,0.019620000000000002,-9.23121
1878,-0.5493600000000001,0.019620000000000002,-9.23121
1879,-0.5493600000000001,0.019620000000000002,-9.23121
1880,-0.6082200000000001,-0.02943,-10.21221
1881,-0.6082200000000001,-0.02943,-10.21221
1882,-0.6082200000000001,-0.02943,-10.21221
1883,-0.73575,0.05886,-10.997010000000001
1884,-0.73575,0.05886,-10.997010000000001
1885,-0.7848,0.27468000000000004,-9.908100000000001
1886,-0.7848,0.27468000000000004,-9.908100000000001
1887,-0.75537,0.05886,-10.035630000000001
1888,-0.75537,0.05886,-10.035630000000001
1889,-0.75537,0.05886,-10.035630000000001
1890,-0.73575,-0.2943,-8.887860000000002
1891,-0.73575,-0.2943,-8.887860000000002
1892,-0.73575,-0.2943,-8.887860000000002
1893,-0.73575,-0.2943,-8.887860000000002
1894,-0.69651,-0.41202000000000005,-8.99577
1895,-0.69651,-0.41202000000000005,-8.99577
1896,-0.69651,-0.41202000000000005,-8.99577
1897,-0.69651,-0.41202000000000005,-8.99577
1898,-0.69651,-0.41202000000000005,-8.99577
1899,-0.69651,-0.41202000000000005,-8.99577
1900,-0.6278400000000001,0.16677,-8.0442
1901,-0.6278400000000001,0.16677,-8.0442
1902,-0.6278400000000001,0.16677,-8.0442
1903,-0.6278400000000001,0.16677,-8.0442
1904,-0.7848,0.37278000000000006,-7.220160000000001
1905,-0.7848,0.37278000000000006,-7.220160000000001
1906,-0.7848,0.37278000000000006,-7.220160000000001
1907,-0.7848,0.37278000000000006,-7.220160000000001
1908,-0.7848,0.37278000000000006,-7.220160000000001
1909,-0.8632800000000002,0.4316400000000001,-9.731520000000002
1910,-0.8632800000000002,0.4316400000000001,-9.731520000000002
1911,-0.8632800000000002,0.4316400000000001,-9.731520000000002
1912,-0.8632800000000002,0.4316400000000001,-9.731520000000002
1913,-0.8632800000000002,0.4316400000000001,-9.731520000000002
1914,-0.8632800000000002,0.4316400000000001,-9.731520000000002
1915,-0.71613,-0.20601000000000003,-8.838810000000002
1916,-0.71613,-0.20601000000000003,-8.838810000000002
1917,-0.71613,-0.20601000000000003,-8.838810000000002
1918,-0.71613,-0.20601000000000003,-8.838810000000002
1919,-0.7749900000000001,-0.14715,-8.42679
1920,-0.7749900000000001,-0.14715,-8.42679
1921,-0.7749900000000001,-0.14715,-8.42679
1922,-0.7749900000000001,-0.14715,-8.42679
1923,-0.7749900000000001,-0.14715,-8.42679
1924,-0.8044200000000001,0.30411000000000005,-9.574560000000002
1925,-0.8044200000000001,0.30411000000000005,-9.574560000000002
1926,-0.8044200000000001,0.30411000000000005,-9.574560000000002
1927,-0.8044200000000001,0.30411000000000005,-9.574560000000002
1928,-0.8044200000000001,0.30411000000000005,-9.574560000000002
1929,-0.75537,0.47088,-10.23183
1930,-0.75537,0.47088,-10.23183
1931,-0.75537,0.47088,-10.23183
1932,-0.75537,0.47088,-10.23183
1933,-0.75537,0.47088,-10.23183
1934,-0.5591700000000001,-0.08829000000000001,-9.59418
1935,-0.5591700000000001,-0.08829000000000001,-9.59418
1936,-0.5591700000000001,-0.08829000000000001,-9.59418
1937,-0.5591700000000001,-0.08829000000000001,-9.59418
1938,-0.5591700000000001,-0.08829000000000001,-9.59418
1939,-0.4316400000000001,-0.10791000000000002,-9.025200000000002
1940,-0.4316400000000001,-0.10791000000000002,-9.025200000000002
1941,-0.4316400000000001,-0.10791000000000002,-9.025200000000002
1942,-0.4316400000000001,-0.10791000000000002,-9.025200000000002
1943,-0.4316400000000001,-0.10791000000000002,-9.025200000000002
1944,-0.4316400000000001,-0.10791000000000002,-9.025200000000002
1945,-0.4905,0.019620000000000002,-10.34955
1946,-0.4905,0.019620000000000002,-10.34955
1947,-0.4905,0.019620000000000002,-10.34955
1948,-0.4905,0.019620000000000002,-10.34955
1949,-0.6278400000000001,0.06867000000000001,-9.819810000000002
1950,-0.6278400000000001,0.06867000000000001,-9.819810000000002
1951,-0.6278400000000001,0.06867000000000001,-9.819810000000002
1952,-0.6278400000000001,0.06867000000000001,-9.819810000000002
1953,-0.6278400000000001,0.06867000000000001,-9.819810000000002
1954,-0.6376499999999999,-0.31392000000000003,-9.42741
1955,-0.6376499999999999,-0.31392000000000003,-9.42741
1956,-0.6376499999999999,-0.31392000000000003,-9.42741
1957,-0.6376499999999999,-0.31392000000000003,-9.42741
1958,-0.6376499999999999,-0.31392000000000003,-9.42741
1959,-0.5984100000000001,-0.10791000000000002,-9.66285
1960,-0.5984100000000001,-0.10791000000000002,-9.66285
1961,-0.5984100000000001,-0.10791000000000002,-9.66285
1962,-0.5984100000000001,-0.10791000000000002,-9.66285
1963,-0.5984100000000001,-0.10791000000000002,-9.66285
1964,-0.7455600000000001,0.05886,-10.09449
1965,-0.7455600000000001,0.05886,-10.09449
1966,-0.7455600000000001,0.05886,-10.09449
1967,-0.7455600000000001,0.05886,-10.09449
1968,-0.7455600000000001,0.05886,-10.09449
1969,-0.81423,-0.22563000000000002,-10.378980000000002
1970,-0.81423,-0.22563000000000002,-10.378980000000002
1971,-0.81423,-0.22563000000000002,-10.378980000000002
1972,-0.81423,-0.22563000000000002,-10.378980000000002
1973,-0.81423,-0.22563000000000002,-10.378980000000002
1974,-0.7848,0.10791000000000002,-9.00558
1975,-0.7848,0.10791000000000002,-9.00558
1976,-0.7848,0.10791000000000002,-9.00558
1977,-0.7848,0.10791000000000002,-9.00558
1978,-0.7848,0.10791000000000002,-9.00558
1979,-0.7848,0.10791000000000002,-9.00558
1980,-0.73575,-0.37278000000000006,-10.741950000000001
1981,-0.73575,-0.37278000000000006,-10.741950000000001
1982,-0.73575,-0.37278000000000006,-10.741950000000001
1983,-0.73575,-0.37278000000000006,-10.741950000000001
1984,-0.8534700000000001,0.0,-9.437220000000002
1985,-0.8534700000000001,0.0,-9.437220000000002
1986,-0.8534700000000001,0.0,-9.437220000000002
1987,-0.8534700000000001,0.0,-9.437220000000002
1988,-0.8534700000000001,0.0,-9.437220000000002
1989,-0.69651,-0.04905,-10.25145
1990,-0.69651,-0.04905,-10.25145
1991,-0.69651,-0.04905,-10.25145
1992,-0.69651,-0.04905,-10.25145
1993,-0.69651,-0.04905,-10.25145
1994,-0.71613,0.25506,-9.03501
1995,-0.71613,0.25506,-9.03501
1996,-0.71613,0.25506,-9.03501
1997,-0.71613,0.25506,-9.03501
1998,-0.71613,0.25506,-9.03501
1999,-0.6867000000000001,-0.13734000000000002,-9.5157
2000,-0.6867000000000001,-0.13734000000000002,-9.5157
2001,-0.6867000000000001,-0.13734000000000002,-9.5157
2002,-0.6867000000000001,-0.13734000000000002,-9.5157
2003,-0.6867000000000001,-0.13734000000000002,-9.5157
2004,-0.64746,-0.17658000000000001,-9.966960000000002
2005,-0.64746,-0.17658000000000001,-9.966960000000002
2006,-0.64746,-0.17658000000000001,-9.966960000000002
2007,-0.64746,-0.17658000000000001,-9.966960000000002
2008,-0.64746,-0.17658000000000001,-9.966960000000002
2009,-0.69651,0.27468000000000004,-9.60399
2010,-0.69651,0.27468000000000004,-9.60399
2011,-0.69651,0.27468000000000004,-9.60399
2012,-0.69651,0.27468000000000004,-9.60399
2013,-0.69651,0.27468000000000004,-9.60399
2014,-0.6867000000000001,0.28449,-10.23183
2015,-0.6867000000000001,0.28449,-10.23183
2016,-0.6867000000000001,-0.1962,-10.104300000000002
2017,-0.6867000000000001,-0.1962,-10.104300000000002
2018,-0.6867000000000001,-0.1962,-10.104300000000002
2019,-0.6867000000000001,-0.1962,-10.104300000000002
2020,-0.64746,0.02943,-8.96634
2021,-0.64746,0.02943,-8.96634
2022,-0.6082200000000001,0.04905,-9.45684
2023,-0.6082200000000001,0.04905,-9.45684
2024,-0.71613,0.17658000000000001,-9.437220000000002
2025,-0.71613,0.17658000000000001,-9.437220000000002
2026,-0.6376499999999999,0.009810000000000001,-9.064440000000001
2027,-0.6376499999999999,0.009810000000000001,-9.064440000000001
2028,-0.6376499999999999,0.009810000000000001,-9.064440000000001
2029,-0.6180300000000001,0.04905,-10.4967
2030,-0.6180300000000001,0.04905,-10.4967
2031,-0.6180300000000001,0.04905,-10.4967
2032,-0.6180300000000001,0.12753,-9.074250000000001
2033,-0.6180300000000001,0.12753,-9.074250000000001
2034,-0.6082200000000001,-0.21582000000000004,-9.82962
2035,-0.6082200000000001,-0.21582000000000004,-9.82962
2036,-0.6867000000000001,0.22563000000000002,-9.898290000000001
2037,-0.6867000000000001,0.22563000000000002,-9.898290000000001
2038,-0.6867000000000001,0.22563000000000002,-9.898290000000001
2039,-0.64746,-0.06867000000000001,-9.898290000000001
2040,-0.64746,-0.06867000000000001,-9.898290000000001
2041,-0.64746,0.13734000000000002,-8.79957
2042,-0.64746,0.13734000000000002,-8.79957
2043,-0.71613,0.16677,-10.290690000000001
2044,-0.71613,0.16677,-10.290690000000001
2045,-0.71613,0.16677,-10.290690000000001
2046,-0.69651,0.11772,-9.859050000000002
2047,-0.69651,0.11772,-9.859050000000002
2048,-0.71613,0.21582000000000004,-9.40779
2049,-0.71613,0.21582000000000004,-9.40779
2050,-0.69651,0.31392000000000003,-9.633420000000001
2051,-0.69651,0.31392000000000003,-9.633420000000001
2052,-0.67689,-0.22563000000000002,-9.819810000000002
2053,-0.67689,-0.22563000000000002,-9.819810000000002
2054,-0.67689,-0.22563000000000002,-9.819810000000002
2055,-0.6867000000000001,0.07848000000000001,-9.11349
2056,-0.6867000000000001,0.07848000000000001,-9.11349
2057,-0.6867000000000001,0.07848000000000001,-9.11349
2058,-0.6278400000000001,-0.35316000000000003,-10.153350000000001
2059,-0.6278400000000001,-0.35316000000000003,-10.153350000000001
2060,-0.65727,-0.20601000000000003,-10.280880000000002
2061,-0.65727,-0.20601000000000003,-10.280880000000002
2062,-0.67689,0.21582000000000004,-9.82962
2063,-0.67689,0.21582000000000004,-9.82962
2064,-0.67689,0.21582000000000004,-9.82962
2065,-0.6082200000000001,0.12753,-10.202399999999999
2066,-0.6082200000000001,0.12753,-10.202399999999999
2067,-0.6376499999999999,-0.06867000000000001,-9.868860000000002
2068,-0.6376499999999999,-0.06867000000000001,-9.868860000000002
2069,-0.6376499999999999,-0.06867000000000001,-9.868860000000002
2070,-0.6278400000000001,-0.08829000000000001,-9.54513
2071,-0.6278400000000001,-0.08829000000000001,-9.54513
2072,-0.67689,-0.009810000000000001,-10.22202
2073,-0.67689,-0.009810000000000001,-10.22202
2074,-0.56898,-0.28449,-10.50651
2075,-0.56898,-0.28449,-10.50651
2076,-0.56898,-0.28449,-10.50651
2077,-0.6082200000000001,0.20601000000000003,-9.83943
2078,-0.6082200000000001,0.20601000000000003,-9.83943
2079,-0.5591700000000001,0.019620000000000002,-9.64323
2080,-0.5591700000000001,0.019620000000000002,-9.64323
2081,-0.5591700000000001,0.019620000000000002,-9.64323
2082,-0.5984100000000001,0.14715,-9.27045
2083,-0.5984100000000001,0.14715,-9.27045
2084,-0.6376499999999999,-0.16677,-11.3796
2085,-0.6376499999999999,-0.16677,-11.3796
2086,-0.56898,0.05886,-9.780569999999999
2087,-0.56898,0.05886,-9.780569999999999
2088,-0.56898,0.05886,-9.780569999999999
2089,-0.6082200000000001,-0.04905,-9.888480000000001
2090,-0.6082200000000001,-0.04905,-9.888480000000001
2091,-0.67689,-0.12753,-13.17483
2092,-0.67689,-0.12753,-13.17483
2093,-0.6180300000000001,0.11772,-8.80938
2094,-0.6180300000000001,0.11772,-8.80938
2095,-0.6180300000000001,0.11772,-8.80938
2096,-0.50031,-0.23544,-10.65366
2097,-0.50031,-0.23544,-10.65366
2098,-0.50031,-0.23544,-10.65366
2099,-0.50031,-0.23544,-10.65366
2100,-0.5591700000000001,-0.24525,-10.388790000000002
2101,-0.5591700000000001,0.08829000000000001,-9.11349
2102,-0.5591700000000001,0.08829000000000001,-9.11349
2103,-0.64746,0.02943,-11.369790000000002
2104,-0.64746,0.02943,-11.369790000000002
2105,-0.5199300000000001,0.11772,-9.898290000000001
2106,-0.5199300000000001,0.11772,-9.898290000000001
2107,-0.5199300000000001,0.11772,-9.898290000000001
2108,-0.56898,0.21582000000000004,-9.59418
2109,-0.56898,0.21582000000000004,-9.59418
2110,-0.56898,0.21582000000000004,-9.59418
2111,-0.56898,0.23544,-9.14292
2112,-0.56898,0.23544,-9.14292
2113,-0.4316400000000001,0.0,-10.12392
2114,-0.4316400000000001,0.0,-10.12392
2115,-0.48069,-0.23544,-10.879290000000001
2116,-0.48069,-0.23544,-10.879290000000001
2117,-0.3924,-0.10791000000000002,-9.015390000000002
2118,-0.3924,-0.10791000000000002,-9.015390000000002
2119,-0.3924,-0.10791000000000002,-9.015390000000002
2120,-0.41202000000000005,-0.08829000000000001,-9.721710000000002
2121,-0.41202000000000005,-0.08829000000000001,-9.721710000000002
2122,-0.34335000000000004,-0.10791000000000002,-10.712520000000001
2123,-0.34335000000000004,-0.10791000000000002,-10.712520000000001
2124,-0.3924,0.1962,-8.37774
2125,-0.3924,0.1962,-8.37774
2126,-0.3924,0.1962,-8.37774
2127,-0.40221000000000007,-0.0981,-10.02582
2128,-0.40221000000000007,-0.0981,-10.02582
2129,-0.40221000000000007,-0.0981,-10.02582
2130,-0.31392000000000003,0.08829000000000001,-9.60399
2131,-0.31392000000000003,0.08829000000000001,-9.60399
2132,-0.37278000000000006,0.05886,-9.53532
2133,-0.37278000000000006,0.05886,-9.53532
2134,-0.37278000000000006,0.05886,-9.53532
2135,-0.33354,-0.15696000000000002,-9.731520000000002
2136,-0.33354,-0.15696000000000002,-9.731520000000002
2137,-0.33354,-0.15696000000000002,-9.731520000000002
2138,-0.47088,-0.1962,-10.055250000000001
2139,-0.47088,-0.1962,-10.055250000000001
2140,-0.15696000000000002,-0.31392000000000003,-9.64323
2141,-0.15696000000000002,-0.31392000000000003,-9.64323
2142,-0.20601000000000003,-0.10791000000000002,-10.92834
2143,-0.20601000000000003,-0.10791000000000002,-10.92834
2144,-0.15696000000000002,0.15696000000000002,-8.829
2145,-0.15696000000000002,0.15696000000000002,-8.829
2146,-0.26487,0.15696000000000002,-9.14292
2147,-0.26487,0.15696000000000002,-9.14292
2148,-0.26487,0.15696000000000002,-9.14292
2149,-0.36297,0.07848000000000001,-10.72233
2150,-0.36297,0.07848000000000001,-10.72233
2151,-0.36297,0.07848000000000001,-10.72233
2152,-0.23544,0.12753,-10.104300000000002
2153,-0.23544,0.12753,-10.104300000000002
2154,-0.32373,-0.38259000000000004,-10.3986
2155,-0.32373,-0.38259000000000004,-10.3986
2156,-0.25506,-0.31392000000000003,-9.98658
2157,-0.25506,-0.31392000000000003,-9.98658
2158,-0.1962,-0.30411000000000005,-10.889100000000001
2159,-0.1962,-0.30411000000000005,-10.889100000000001
2160,-0.1962,-0.30411000000000005,-10.889100000000001
2161,-0.25506,0.21582000000000004,-9.260640000000002
2162,-0.25506,0.21582000000000004,-9.260640000000002
2163,-0.17658000000000001,0.08829000000000001,-9.97677
2164,-0.17658000000000001,0.08829000000000001,-9.97677
2165,-0.17658000000000001,0.08829000000000001,-9.97677
2166,-0.16677,0.10791000000000002,-9.682470000000002
2167,-0.16677,0.10791000000000002,-9.682470000000002
2168,-0.13734000000000002,-0.009810000000000001,-10.11411
2169,-0.13734000000000002,-0.009810000000000001,-10.11411
2170,-0.13734000000000002,-0.08829000000000001,-9.1233
2171,-0.13734000000000002,-0.08829000000000001,-9.1233
2172,-0.13734000000000002,-0.08829000000000001,-9.1233
2173,-0.13734000000000002,-0.08829000000000001,-9.1233
2174,-0.11772,-0.14715,-9.7119
2175,-0.16677,-0.13734000000000002,-10.95777
2176,-0.16677,-0.13734000000000002,-10.95777
2177,-0.17658000000000001,-0.13734000000000002,-9.721710000000002
2178,-0.17658000000000001,-0.13734000000000002,-9.721710000000002
2179,-0.17658000000000001,-0.13734000000000002,-9.721710000000002
2180,-0.17658000000000001,0.07848000000000001,-10.143540000000002
2181,-0.17658000000000001,0.07848000000000001,-10.143540000000002
2182,-0.1962,-0.019620000000000002,-10.36917
2183,-0.1962,-0.019620000000000002,-10.36917
2184,-0.05886,-0.20601000000000003,-10.11411
2185,-0.05886,-0.20601000000000003,-10.11411
2186,-0.05886,-0.20601000000000003,-10.11411
2187,-0.07848000000000001,-0.019620000000000002,-9.55494
2188,-0.07848000000000001,-0.019620000000000002,-9.55494
2189,-0.07848000000000001,-0.019620000000000002,-9.55494
2190,-0.08829000000000001,0.10791000000000002,-8.779950000000001
2191,-0.08829000000000001,0.10791000000000002,-8.779950000000001
2192,-0.14715,-0.14715,-10.732140000000001
2193,-0.14715,-0.14715,-10.732140000000001
2194,-0.14715,-0.14715,-10.732140000000001
2195,-0.12753,0.12753,-9.18216
2196,-0.12753,0.12753,-9.18216
2197,-0.14715,-0.11772,-11.07549
2198,-0.14715,-0.11772,-11.07549
2199,-0.0981,-0.0981,-8.98596
2200,-0.0981,-0.0981,-8.98596
2201,-0.0981,-0.0981,-8.98596
2202,-0.05886,-0.02943,-9.42741
2203,-0.30411000000000005,-0.04905,-9.92772
2204,-0.30411000000000005,-0.04905,-9.92772
2205,-0.30411000000000005,-0.04905,-9.92772
2206,-0.05886,-0.08829000000000001,-10.23183
2207,-0.05886,-0.08829000000000001,-10.23183
2208,-0.05886,-0.08829000000000001,-10.23183
2209,-0.16677,-0.02943,-10.879290000000001
2210,-0.16677,-0.02943,-10.879290000000001
2211,-0.019620000000000002,-0.02943,-8.495460000000001
2212,-0.019620000000000002,-0.02943,-8.495460000000001
2213,-0.06867000000000001,-0.08829000000000001,-10.604610000000001
2214,-0.06867000000000001,-0.08829000000000001,-10.604610000000001
2215,-0.20601000000000003,-0.11772,-9.437220000000002
2216,-0.20601000000000003,-0.11772,-9.437220000000002
2217,-0.20601000000000003,-0.11772,-9.437220000000002
2218,-0.15696000000000002,0.2943,-9.623610000000001
2219,-0.15696000000000002,0.2943,-9.623610000000001
2220,-0.15696000000000002,0.2943,-9.623610000000001
2221,-0.25506,0.18639000000000003,-10.457460000000001
2222,-0.25506,0.18639000000000003,-10.457460000000001
2223,-0.25506,0.18639000000000003,-10.457460000000001
2224,-0.17658000000000001,-0.15696000000000002,-10.840050000000002
2225,-0.13734000000000002,-0.0981,-10.90872
2226,-0.13734000000000002,-0.0981,-10.90872
2227,-0.13734000000000002,-0.0981,-10.90872
2228,0.07848000000000001,-0.42183000000000004,-7.857810000000001
2229,0.07848000000000001,-0.42183000000000004,-7.857810000000001
2230,-0.10791000000000002,-0.21582000000000004,-10.035630000000001
2231,-0.10791000000000002,-0.21582000000000004,-10.035630000000001
2232,0.0,0.0,-10.849860000000001
2233,0.0,0.0,-10.849860000000001
2234,0.0,0.0,-10.849860000000001
2235,0.0981,0.17658000000000001,-10.16316
2236,0.0981,0.17658000000000001,-10.16316
2237,0.019620000000000002,0.14715,-9.054630000000001
2238,0.019620000000000002,0.14715,-9.054630000000001
2239,0.019620000000000002,0.14715,-9.054630000000001
2240,0.18639000000000003,-0.02943,-10.280880000000002
2241,0.18639000000000003,-0.02943,-10.280880000000002
2242,0.18639000000000003,-0.02943,-10.280880000000002
2243,0.0981,0.019620000000000002,-8.946720000000001
2244,0.0981,0.019620000000000002,-8.946720000000001
2245,-0.009810000000000001,-0.15696000000000002,-9.13311
2246,-0.009810000000000001,-0.15696000000000002,-9.13311
2247,0.05886,-0.009810000000000001,-9.83943
2248,0.05886,-0.009810000000000001,-9.83943
2249,0.05886,-0.009810000000000001,-9.83943
2250,-0.04905,0.06867000000000001,-9.966960000000002
2251,-0.04905,0.06867000000000001,-9.966960000000002
2252,0.0,-0.009810000000000001,-8.51508
2253,0.0,-0.009810000000000001,-8.51508
2254,-0.0981,0.2943,-8.84862
2255,-0.0981,0.2943,-8.84862
2256,-0.0981,0.2943,-8.84862
2257,-0.039240000000000004,0.22563000000000002,-9.966960000000002
2258,-0.039240000000000004,0.22563000000000002,-9.966960000000002
2259,-0.039240000000000004,-0.039240000000000004,-10.02582
2260,-0.039240000000000004,-0.039240000000000004,-10.02582
2261,-0.039240000000000004,-0.039240000000000004,-10.02582
2262,-0.13734000000000002,-0.04905,-9.82962
2263,-0.08829000000000001,0.06867000000000001,-9.29007
2264,-0.08829000000000001,0.06867000000000001,-9.29007
2265,-0.08829000000000001,0.06867000000000001,-9.29007
2266,0.05886,0.08829000000000001,-10.172970000000001
2267,0.05886,0.08829000000000001,-10.172970000000001
2268,0.05886,0.08829000000000001,-10.172970000000001
2269,-0.039240000000000004,-0.17658000000000001,-10.43784
2270,-0.039240000000000004,-0.17658000000000001,-10.43784
2271,-0.039240000000000004,-0.17658000000000001,-10.43784
2272,-0.039240000000000004,-0.17658000000000001,-10.43784
2273,0.04905,0.009810000000000001,-9.29007
2274,0.04905,0.009810000000000001,-9.29007
2275,0.04905,0.009810000000000001,-9.29007
2276,0.04905,0.009810000000000001,-9.29007
2277,0.04905,0.009810000000000001,-9.29007
2278,0.05886,-0.38259000000000004,-9.87867
2279,0.05886,-0.38259000000000004,-9.87867
2280,0.05886,-0.38259000000000004,-9.87867
2281,0.05886,-0.38259000000000004,-9.87867
2282,0.05886,-0.38259000000000004,-9.87867
2283,0.05886,-0.38259000000000004,-9.87867
2284,0.0,0.08829000000000001,-10.22202
2285,0.0,0.08829000000000001,-10.22202
2286,0.0,0.08829000000000001,-10.22202
2287,0.0,0.08829000000000001,-10.22202
2288,-0.15696000000000002,0.34335000000000004,-10.40841
2289,-0.15696000000000002,0.34335000000000004,-10.40841
2290,-0.15696000000000002,0.34335000000000004,-10.40841
2291,-0.15696000000000002,0.34335000000000004,-10.40841
2292,-0.15696000000000002,0.34335000000000004,-10.40841
2293,-0.11772,-0.05886,-8.17173
2294,-0.11772,-0.05886,-8.17173
2295,-0.11772,-0.05886,-8.17173
2296,-0.11772,-0.05886,-8.17173
2297,-0.11772,-0.05886,-8.17173
2298,-0.11772,-0.05886,-8.17173
2299,0.009810000000000001,-0.56898,-11.840670000000001
2300,0.009810000000000001,-0.56898,-11.840670000000001
2301,0.009810000000000001,-0.56898,-11.840670000000001
2302,0.009810000000000001,-0.56898,-11.840670000000001
2303,0.009810000000000001,-0.56898,-11.840670000000001
2304,0.04905,0.25506,-9.28026
2305,0.04905,0.25506,-9.28026
2306,0.04905,0.25506,-9.28026
2307,0.04905,0.25506,-9.28026
2308,-0.13734000000000002,-0.14715,-10.045440000000001
2309,-0.13734000000000002,-0.14715,-10.045440000000001
2310,-0.13734000000000002,-0.14715,-10.045440000000001
2311,-0.13734000000000002,-0.14715,-10.045440000000001
2312,-0.13734000000000002,-0.14715,-10.045440000000001
2313,-0.05886,0.12753,-8.063820000000002
2314,-0.05886,0.12753,-8.063820000000002
2315,-0.05886,0.12753,-8.063820000000002
2316,-0.15696000000000002,-0.24525,-10.35936
2317,-0.15696000000000002,-0.24525,-10.35936
2318,0.019620000000000002,0.21582000000000004,-9.025200000000002
2319,0.019620000000000002,0.21582000000000004,-9.025200000000002
2320,0.019620000000000002,0.21582000000000004,-9.025200000000002
2321,0.009810000000000001,0.0,-9.731520000000002
2322,0.009810000000000001,0.0,-9.731520000000002
2323,0.009810000000000001,0.0,-9.731520000000002
2324,-0.13734000000000002,0.28449,-10.192590000000001
2325,-0.13734000000000002,0.28449,-10.192590000000001
2326,-0.10791000000000002,0.07848000000000001,-9.50589
2327,-0.10791000000000002,0.07848000000000001,-9.50589
2328,-0.06867000000000001,0.06867000000000001,-10.40841
2329,-0.06867000000000001,0.06867000000000001,-10.40841
2330,-0.06867000000000001,0.06867000000000001,-10.40841
2331,-0.14715,0.04905,-10.104300000000002
2332,-0.14715,0.04905,-10.104300000000002
2333,-0.14715,0.02943,-8.838810000000002
2334,-0.14715,0.02943,-8.838810000000002
2335,-0.07848000000000001,-0.05886,-8.99577
2336,-0.07848000000000001,-0.05886,-8.99577
2337,-0.07848000000000001,-0.05886,-8.99577
2338,0.11772,-0.10791000000000002,-10.43784
2339,0.11772,-0.10791000000000002,-10.43784
2340,0.009810000000000001,-0.14715,-10.310310000000001
2341,0.009810000000000001,-0.14715,-10.310310000000001
2342,0.009810000000000001,-0.14715,-10.310310000000001
2343,0.019620000000000002,-0.14715,-9.45684
2344,0.019620000000000002,-0.14715,-9.45684
2345,0.05886,0.04905,-9.38817
2346,0.05886,0.04905,-9.38817
2347,0.05886,0.04905,-9.38817
2348,-0.019620000000000002,-0.08829000000000001,-10.21221
2349,-0.019620000000000002,-0.08829000000000001,-10.21221
2350,0.08829000000000001,0.10791000000000002,-9.868860000000002
2351,0.08829000000000001,0.10791000000000002,-9.868860000000002
2352,-0.0981,-0.009810000000000001,-10.006200000000002
2353,-0.0981,-0.009810000000000001,-10.006200000000002
2354,0.0981,-0.0981,-10.889100000000001
2355,0.0981,-0.0981,-10.889100000000001
2356,-0.019620000000000002,-0.11772,-9.69228
2357,-0.019620000000000002,-0.11772,-9.69228
2358,-0.019620000000000002,-0.11772,-9.69228
2359,0.07848000000000001,-0.04905,-9.859050000000002
2360,0.07848000000000001,-0.04905,-9.859050000000002
2361,0.07848000000000001,-0.04905,-9.859050000000002
2362,-0.07848000000000001,0.009810000000000001,-9.93753
2363,-0.07848000000000001,0.009810000000000001,-9.93753
2364,0.10791000000000002,-0.019620000000000002,-9.996390000000002
2365,0.10791000000000002,-0.019620000000000002,-9.996390000000002
2366,0.14715,0.02943,-10.290690000000001
2367,0.14715,0.02943,-10.290690000000001
2368,0.14715,0.02943,-10.290690000000001
2369,0.11772,0.039240000000000004,-9.17235
2370,0.11772,0.039240000000000004,-9.17235
2371,0.04905,-0.14715,-11.134350000000001
2372,0.04905,-0.14715,-11.134350000000001
2373,0.02943,0.11772,-8.348310000000001
2374,0.02943,0.11772,-8.348310000000001
2375,0.02943,0.11772,-8.348310000000001
2376,-0.05886,0.13734000000000002,-9.868860000000002
2377,-0.05886,0.13734000000000002,-9.868860000000002
2378,0.02943,-0.08829000000000001,-9.24102
2379,0.02943,-0.08829000000000001,-9.24102
2380,0.02943,-0.08829000000000001,-9.24102
2381,0.05886,0.14715,-9.70209
2382,0.05886,0.14715,-9.70209
2383,0.019620000000000002,0.5787900000000001,-10.09449
2384,0.019620000000000002,0.5787900000000001,-10.09449
2385,0.04905,0.11772,-9.584370000000002
2386,0.04905,0.11772,-9.584370000000002
2387,0.04905,0.11772,-9.584370000000002
2388,0.21582000000000004,-0.35316000000000003,-11.399220000000001
2389,0.21582000000000004,-0.35316000000000003,-11.399220000000001
2390,0.23544,-0.20601000000000003,-10.565370000000001
2391,0.23544,-0.20601000000000003,-10.565370000000001
2392,0.23544,-0.20601000000000003,-10.565370000000001
2393,0.039240000000000004,-0.05886,-9.682470000000002
2394,0.039240000000000004,-0.05886,-9.682470000000002
2395,-0.04905,0.11772,-10.64385
2396,-0.04905,0.11772,-10.64385
2397,-0.04905,0.11772,-10.64385
2398,-0.08829000000000001,0.41202000000000005,-9.770760000000001
2399,-0.08829000000000001,0.41202000000000005,-9.770760000000001
2400,-0.08829000000000001,0.41202000000000005,-9.770760000000001
2401,0.04905,0.0981,-10.36917
2402,0.04905,0.0981,-10.36917
2403,0.30411000000000005,-0.24525,-9.11349
2404,0.30411000000000005,-0.24525,-9.11349
2405,0.23544,0.0981,-9.45684
2406,0.23544,0.0981,-9.45684
2407,0.22563000000000002,-0.15696000000000002,-9.87867
2408,0.22563000000000002,-0.15696000000000002,-9.87867
2409,0.22563000000000002,-0.15696000000000002,-9.87867
2410,0.27468000000000004,0.08829000000000001,-8.740710000000002
2411,0.27468000000000004,0.08829000000000001,-8.740710000000002
2412,0.27468000000000004,0.18639000000000003,-10.65366
2413,0.27468000000000004,0.18639000000000003,-10.65366
2414,0.27468000000000004,0.18639000000000003,-10.65366
2415,0.12753,0.06867000000000001,-10.07487
2416,0.24525,0.10791000000000002,-9.23121
2417,0.24525,0.10791000000000002,-9.23121
2418,0.24525,0.10791000000000002,-9.23121
2419,0.11772,-0.07848000000000001,-9.79038
2420,0.11772,-0.07848000000000001,-9.79038
2421,0.11772,-0.07848000000000001,-9.79038
2422,0.23544,0.0,-8.917290000000001
2423,0.23544,0.0,-8.917290000000001
2424,0.14715,0.04905,-10.01601
2425,0.14715,0.04905,-10.01601
2426,0.11772,0.10791000000000002,-8.98596
2427,0.11772,0.10791000000000002,-8.98596
2428,0.11772,0.10791000000000002,-8.98596
2429,0.26487,0.25506,-9.348930000000001
2430,0.26487,0.25506,-9.348930000000001
2431,0.12753,0.05886,-9.80019
2432,0.12753,0.05886,-9.80019
2433,0.12753,0.05886,-9.80019
2434,0.23544,0.11772,-9.348930000000001
2435,0.23544,0.11772,-9.348930000000001
2436,0.18639000000000003,-0.05886,-9.84924
2437,0.18639000000000003,-0.05886,-9.84924
2438,0.20601000000000003,0.05886,-9.260640000000002
2439,0.20601000000000003,0.05886,-9.260640000000002
2440,0.20601000000000003,0.05886,-9.260640000000002
2441,0.20601000000000003,0.05886,-9.260640000000002
2442,0.3924,0.26487,-10.01601
2443,0.26487,-0.0981,-10.133730000000002
2444,0.26487,-0.0981,-10.133730000000002
2445,0.4316400000000001,0.2943,-7.96572
2446,0.4316400000000001,0.2943,-7.96572
2447,0.4316400000000001,0.2943,-7.96572
2448,0.4316400000000001,0.02943,-10.09449
2449,0.4316400000000001,0.02943,-10.09449
2450,0.4316400000000001,0.02943,-10.09449
2451,0.22563000000000002,-0.31392000000000003,-9.11349
2452,0.22563000000000002,-0.31392000000000003,-9.11349
2453,0.4316400000000001,-0.06867000000000001,-9.67266
2454,0.4316400000000001,-0.06867000000000001,-9.67266
2455,0.31392000000000003,0.17658000000000001,-10.27107
2456,0.31392000000000003,0.17658000000000001,-10.27107
2457,0.47088,-0.16677,-11.781810000000002
2458,0.47088,-0.16677,-11.781810000000002
2459,0.47088,-0.16677,-11.781810000000002
2460,0.51012,0.10791000000000002,-8.93691
2461,0.51012,0.10791000000000002,-8.93691
2462,0.51012,0.10791000000000002,-8.93691
2463,0.36297,-0.02943,-10.310310000000001
2464,0.36297,-0.02943,-10.310310000000001
2465,0.4905,-0.019620000000000002,-10.68309
2466,0.4905,-0.019620000000000002,-10.68309
2467,0.47088,0.10791000000000002,-9.397980000000002
2468,0.47088,0.10791000000000002,-9.397980000000002
2469,0.47088,0.10791000000000002,-9.397980000000002
2470,0.4316400000000001,0.04905,-10.53594
2471,0.4316400000000001,0.04905,-10.53594
2472,0.41202000000000005,0.14715,-9.996390000000002
2473,0.41202000000000005,0.14715,-9.996390000000002
2474,0.41202000000000005,0.14715,-9.996390000000002
2475,0.5199300000000001,0.02943,-11.222640000000002
2476,0.5199300000000001,0.02943,-11.222640000000002
2477,0.41202000000000005,0.22563000000000002,-9.54513
2478,0.41202000000000005,0.22563000000000002,-9.54513
2479,0.51012,0.10791000000000002,-10.192590000000001
2480,0.51012,0.10791000000000002,-10.192590000000001
2481,0.51012,0.10791000000000002,-10.192590000000001
