t,accX,accY,accZ
0,2.36421,0.27468000000000004,-10.378980000000002
1,2.36421,0.27468000000000004,-10.378980000000002
2,2.36421,0.27468000000000004,-10.378980000000002
3,2.36421,0.25506,-9.98658
4,2.36421,0.25506,-9.98658
5,2.3544,-0.0981,-10.938150000000002
6,2.3544,-0.0981,-10.938150000000002
7,2.3544,-0.18639000000000003,-8.789760000000001
8,2.3544,-0.18639000000000003,-8.789760000000001
9,2.3544,-0.18639000000000003,-8.789760000000001
10,2.38383,0.36297,-10.712520000000001
11,2.38383,0.36297,-10.712520000000001
12,2.3151600000000006,-0.009810000000000001,-9.65304
13,2.3151600000000006,-0.009810000000000001,-9.65304
14,2.3151600000000006,-0.009810000000000001,-9.65304
15,2.3347800000000003,0.17658000000000001,-9.14292
16,2.3347800000000003,0.17658000000000001,-9.14292
17,2.4525,0.36297,-9.329310000000001
18,2.4525,0.36297,-9.329310000000001
19,2.4525,0.36297,-9.329310000000001
20,2.5505999999999998,0.1962,-10.104300000000002
21,2.5505999999999998,0.1962,-10.104300000000002
22,2.61927,0.15696000000000002,-9.14292
23,2.61927,0.15696000000000002,-9.14292
24,2.6487000000000003,-0.019620000000000002,-8.41698
25,2.6487000000000003,-0.019620000000000002,-8.41698
26,2.6487000000000003,-0.019620000000000002,-8.41698
27,2.65851,-0.28449,-9.74133
28,2.65851,-0.28449,-9.74133
29,2.65851,-0.28449,-9.74133
30,2.60946,0.20601000000000003,-8.76033
31,2.61927,0.30411000000000005,-9.682470000000002
32,2.61927,0.30411000000000005,-9.682470000000002
33,2.61927,0.30411000000000005,-9.682470000000002
34,2.59965,0.33354,-8.063820000000002
35,2.59965,0.33354,-8.063820000000002
36,2.72718,0.40221000000000007,-10.310310000000001
37,2.72718,0.40221000000000007,-10.310310000000001
38,2.5505999999999998,0.4905,-8.29926
39,2.5505999999999998,0.4905,-8.29926
40,2.5505999999999998,0.4905,-8.29926
41,2.6781300000000003,0.30411000000000005,-8.593560000000002
42,2.6781300000000003,0.30411000000000005,-8.593560000000002
43,2.5505999999999998,0.5984100000000001,-8.72109
44,2.5505999999999998,0.5984100000000001,-8.72109
45,2.5505999999999998,0.5984100000000001,-8.72109
46,2.6487000000000003,0.26487,-10.08468
47,2.6487000000000003,0.26487,-10.08468
48,2.6487000000000003,0.26487,-10.08468
49,2.65851,0.20601000000000003,-9.28026
50,2.62908,0.039240000000000004,-8.61318
51,2.62908,0.039240000000000004,-8.61318
52,2.62908,0.039240000000000004,-8.61318
53,2.6781300000000003,-0.009810000000000001,-7.5929400000000005
54,2.6781300000000003,-0.009810000000000001,-7.5929400000000005
55,2.72718,0.26487,-10.182780000000001
56,2.72718,0.26487,-10.182780000000001
57,2.72718,0.26487,-10.182780000000001
58,2.69775,0.31392000000000003,-9.074250000000001
59,2.69775,0.31392000000000003,-9.074250000000001
60,2.69775,0.31392000000000003,-9.074250000000001
61,2.6487000000000003,0.27468000000000004,-9.64323
62,2.7369900000000005,-0.05886,-9.10368
63,2.7369900000000005,-0.05886,-9.10368
64,2.7369900000000005,-0.05886,-9.10368
65,2.76642,0.32373,-9.064440000000001
66,2.76642,0.32373,-9.064440000000001
67,2.76642,0.32373,-9.064440000000001
68,2.76642,0.47088,-9.1233
69,2.76642,0.47088,-9.1233
70,2.8939500000000002,0.6082200000000001,-10.006200000000002
71,2.8939500000000002,0.6082200000000001,-10.006200000000002
72,2.9135700000000004,0.15696000000000002,-13.763430000000001
73,2.9135700000000004,0.15696000000000002,-13.763430000000001
74,2.54079,0.17658000000000001,-8.70147
75,2.54079,0.17658000000000001,-8.70147
76,2.54079,0.17658000000000001,-8.70147
77,2.54079,0.0,-10.54575
78,2.54079,0.0,-10.54575
80,2.6388900000000004,0.26487,-11.958390000000001
81,2.6388900000000004,0.26487,-11.958390000000001
82,2.66832,0.15696000000000002,-11.61504
83,2.66832,0.15696000000000002,-11.61504
84,2.58984,0.24525,-9.18216
85,2.58984,0.24525,-9.18216
86,2.58984,0.24525,-9.18216
87,2.65851,0.009810000000000001,-9.38817
88,2.65851,0.009810000000000001,-9.38817
89,2.65851,0.009810000000000001,-9.38817
90,2.5800300000000003,0.37278000000000006,-9.18216
91,2.5800300000000003,0.37278000000000006,-9.18216
92,2.61927,0.5199300000000001,-8.98596
93,2.61927,0.5199300000000001,-8.98596
94,2.5702200000000004,0.2943,-9.40779
95,2.5702200000000004,0.2943,-9.40779
96,2.5505999999999998,0.26487,-10.01601
97,2.5505999999999998,0.26487,-10.01601
98,2.70756,0.21582000000000004,-9.23121
99,2.70756,0.21582000000000004,-9.23121
100,2.70756,0.21582000000000004,-9.23121
101,2.7566100000000002,0.16677,-8.76033
102,2.7566100000000002,0.16677,-8.76033
103,2.7566100000000002,0.16677,-8.76033
104,2.8056600000000005,0.46107000000000004,-8.103060000000001
105,2.8056600000000005,0.46107000000000004,-8.103060000000001
106,2.8056600000000005,0.46107000000000004,-8.103060000000001
107,2.7173700000000003,0.06867000000000001,-8.946720000000001
108,2.87433,0.28449,-9.93753
109,2.87433,0.28449,-9.93753
110,2.72718,0.25506,-7.47522
111,2.72718,0.25506,-7.47522
112,2.72718,0.25506,-7.47522
113,2.7566100000000002,0.31392000000000003,-8.62299
114,2.7566100000000002,0.31392000000000003,-8.62299
115,2.8841400000000004,0.24525,-8.99577
116,2.8841400000000004,0.24525,-8.99577
117,2.8841400000000004,0.24525,-8.99577
118,2.95281,0.06867000000000001,-9.025200000000002
119,2.95281,0.06867000000000001,-9.025200000000002
120,2.95281,0.06867000000000001,-9.025200000000002
121,2.943,0.46107000000000004,-9.633420000000001
122,2.943,0.46107000000000004,-9.633420000000001
123,2.83509,0.12753,-9.60399
124,2.83509,0.12753,-9.60399
125,2.83509,0.12753,-9.60399
126,2.8449,-0.26487,-10.65366
127,2.8939500000000002,0.0,-8.98596
128,2.8939500000000002,0.0,-8.98596
129,2.8939500000000002,0.0,-8.98596
130,2.8939500000000002,0.23544,-10.6929
131,2.8939500000000002,0.23544,-10.6929
132,2.8939500000000002,0.23544,-10.6929
133,2.66832,0.11772,-10.388790000000002
134,2.66832,0.11772,-10.388790000000002
135,2.8449,-0.11772,-10.43784
136,2.8449,-0.11772,-10.43784
137,2.87433,0.3924,-10.290690000000001
138,2.87433,0.3924,-10.290690000000001
139,2.87433,0.3924,-10.290690000000001
140,2.8154700000000004,0.4316400000000001,-10.25145
141,2.8154700000000004,0.4316400000000001,-10.25145
142,2.86452,0.06867000000000001,-8.56413
143,2.86452,0.06867000000000001,-8.56413
144,2.9920500000000003,0.27468000000000004,-9.191970000000001
145,2.9920500000000003,0.27468000000000004,-9.191970000000001
146,3.0411000000000006,0.48069,-9.80019
147,3.0411000000000006,0.48069,-9.80019
148,3.0411000000000006,0.48069,-9.80019
149,3.0411000000000006,0.48069,-9.80019
150,2.9626200000000003,0.15696000000000002,-9.00558
151,2.9626200000000003,0.15696000000000002,-9.00558
152,2.8939500000000002,0.47088,-8.26983
153,2.8939500000000002,0.47088,-8.26983
154,2.70756,0.44145000000000006,-7.3575
155,2.70756,0.44145000000000006,-7.3575
156,2.70756,0.44145000000000006,-7.3575
157,2.70756,0.6278400000000001,-7.24959
158,2.70756,0.6278400000000001,-7.24959
159,2.69775,0.4316400000000001,-6.543270000000001
160,2.69775,0.4316400000000001,-6.543270000000001
161,2.3936400000000004,0.52974,-9.14292
162,2.3936400000000004,0.52974,-9.14292
163,2.3936400000000004,0.52974,-9.14292
164,2.3936400000000004,0.52974,-9.14292
165,2.3936400000000004,0.52974,-9.14292
166,2.3151600000000006,-0.5395500000000001,-11.153970000000001
167,2.3151600000000006,-0.5395500000000001,-11.153970000000001
168,2.3151600000000006,-0.5395500000000001,-11.153970000000001
169,2.3151600000000006,-0.5395500000000001,-11.153970000000001
170,2.3151600000000006,-0.5395500000000001,-11.153970000000001
171,2.2366800000000002,0.7651800000000001,-10.90872
172,2.2366800000000002,0.7651800000000001,-10.90872
173,2.2366800000000002,0.7651800000000001,-10.90872
174,2.2366800000000002,0.7651800000000001,-10.90872
175,2.2366800000000002,0.7651800000000001,-10.90872
176,2.17782,0.67689,-8.69166
177,2.17782,0.67689,-8.69166
178,2.17782,0.67689,-8.69166
179,2.17782,0.67689,-8.69166
180,2.17782,0.67689,-8.69166
181,1.9816200000000002,0.009810000000000001,-11.693520000000001
182,1.9816200000000002,0.009810000000000001,-11.693520000000001
183,1.9816200000000002,0.009810000000000001,-11.693520000000001
184,1.9816200000000002,0.009810000000000001,-11.693520000000001
185,1.9816200000000002,0.009810000000000001,-11.693520000000001
186,1.8639000000000001,0.46107000000000004,-12.233070000000001
187,1.8639000000000001,0.46107000000000004,-12.233070000000001
188,1.8639000000000001,0.46107000000000004,-12.233070000000001
189,1.8639000000000001,0.46107000000000004,-12.233070000000001
190,1.8639000000000001,0.46107000000000004,-12.233070000000001
191,1.7658000000000003,0.42183000000000004,-10.869480000000001
192,1.7658000000000003,0.42183000000000004,-10.869480000000001
193,1.7658000000000003,0.42183000000000004,-10.869480000000001
194,1.7658000000000003,0.42183000000000004,-10.869480000000001
195,1.7658000000000003,0.42183000000000004,-10.869480000000001
196,1.6186500000000001,0.05886,-11.90934
197,1.6186500000000001,0.05886,-11.90934
198,1.6186500000000001,0.05886,-11.90934
199,1.6186500000000001,0.05886,-11.90934
200,1.6186500000000001,0.05886,-11.90934
201,1.59903,0.7063200000000001,-11.59542
202,1.59903,0.7063200000000001,-11.59542
203,1.59903,0.7063200000000001,-11.59542
204,1.59903,0.7063200000000001,-11.59542
205,1.59903,0.7063200000000001,-11.59542
206,1.4715,0.2943,-10.89891
207,1.4715,0.2943,-10.89891
208,1.4715,0.2943,-10.89891
209,1.4715,0.2943,-10.89891
210,1.4715,0.2943,-10.89891
211,1.4715,0.37278000000000006,-11.713140000000001
212,1.4715,0.37278000000000006,-11.713140000000001
213,1.4715,0.37278000000000006,-11.713140000000001
214,1.4715,0.37278000000000006,-11.713140000000001
215,1.4715,0.37278000000000006,-11.713140000000001
216,1.42245,0.27468000000000004,-11.72295
217,1.42245,0.27468000000000004,-11.72295
218,1.42245,0.27468000000000004,-11.72295
219,1.42245,0.27468000000000004,-11.72295
220,1.42245,0.27468000000000004,-11.72295
221,1.36359,0.46107000000000004,-10.96758
222,1.36359,0.46107000000000004,-10.96758
223,1.36359,0.46107000000000004,-10.96758
224,1.36359,0.46107000000000004,-10.96758
225,1.36359,0.46107000000000004,-10.96758
226,1.36359,0.26487,-11.33055
227,1.36359,0.26487,-11.33055
228,1.36359,0.26487,-11.33055
229,1.36359,0.26487,-11.33055
230,1.36359,0.26487,-11.33055
231,1.33416,0.16677,-13.16502
232,1.33416,0.16677,-13.16502
233,1.33416,0.16677,-13.16502
234,1.33416,0.16677,-13.16502
235,1.33416,0.16677,-13.16502
236,1.4126400000000001,0.64746,-9.60399
237,1.4126400000000001,0.64746,-9.60399
238,1.4126400000000001,0.64746,-9.60399
239,1.4126400000000001,0.64746,-9.60399
240,1.4126400000000001,0.64746,-9.60399
241,1.4616900000000002,-0.13734000000000002,-9.476460000000001
242,1.4616900000000002,-0.13734000000000002,-9.476460000000001
243,1.4616900000000002,-0.13734000000000002,-9.476460000000001
244,1.4616900000000002,-0.13734000000000002,-9.476460000000001
245,1.4616900000000002,-0.13734000000000002,-9.476460000000001
246,1.5794100000000002,0.67689,-9.52551
247,1.5794100000000002,0.67689,-9.52551
248,1.5794100000000002,0.67689,-9.52551
249,1.5794100000000002,0.67689,-9.52551
250,1.5794100000000002,0.67689,-9.52551
251,1.58922,-0.08829000000000001,-8.80938
252,1.58922,-0.08829000000000001,-8.80938
253,1.58922,-0.08829000000000001,-8.80938
254,1.58922,-0.08829000000000001,-8.80938
255,1.58922,-0.08829000000000001,-8.80938
256,1.62846,0.46107000000000004,-8.770140000000001
257,1.62846,0.46107000000000004,-8.770140000000001
258,1.62846,0.46107000000000004,-8.770140000000001
259,1.62846,0.46107000000000004,-8.770140000000001
260,1.62846,0.46107000000000004,-8.770140000000001
261,1.62846,0.1962,-9.760950000000001
262,1.62846,0.1962,-9.760950000000001
263,1.62846,0.1962,-9.760950000000001
264,1.5794100000000002,0.52974,-9.2214
265,1.5794100000000002,0.52974,-9.2214
266,1.5794100000000002,0.6180300000000001,-9.37836
267,1.5794100000000002,0.6180300000000001,-9.37836
268,1.5303600000000002,0.35316000000000003,-10.26126
269,1.5303600000000002,0.35316000000000003,-10.26126
270,1.5303600000000002,0.35316000000000003,-10.26126
271,1.4420700000000002,0.2943,-7.955910000000001
272,1.4420700000000002,0.2943,-7.955910000000001
273,1.51074,0.1962,-10.889100000000001
274,1.51074,0.1962,-10.889100000000001
275,1.5303600000000002,0.6180300000000001,-9.1233
276,1.5303600000000002,0.6180300000000001,-9.1233
277,1.5303600000000002,0.6180300000000001,-9.1233
278,1.29492,0.46107000000000004,-8.67204
279,1.29492,0.46107000000000004,-8.67204
280,1.3243500000000001,0.47088,-9.59418
281,1.3243500000000001,0.47088,-9.59418
282,1.3243500000000001,0.47088,-9.59418
283,1.1575800000000003,0.2943,-9.859050000000002
284,1.1575800000000003,0.2943,-9.859050000000002
285,1.10853,0.38259000000000004,-9.1233
286,1.10853,0.38259000000000004,-9.1233
287,1.08891,0.27468000000000004,-9.94734
288,1.08891,0.27468000000000004,-9.94734
289,1.08891,0.27468000000000004,-9.94734
290,1.08891,0.27468000000000004,-9.94734
291,1.00062,0.11772,-9.201780000000001
292,1.00062,0.11772,-9.201780000000001
293,0.9025200000000001,0.0981,-9.13311
294,0.9025200000000001,0.0981,-9.13311
295,0.9319500000000001,0.41202000000000005,-9.819810000000002
296,0.9319500000000001,0.41202000000000005,-9.819810000000002
297,0.9319500000000001,0.41202000000000005,-9.819810000000002
298,0.9319500000000001,0.56898,-8.32869
299,0.9319500000000001,0.56898,-8.32869
300,0.8534700000000001,0.24525,-9.682470000000002
301,0.8534700000000001,0.24525,-9.682470000000002
302,0.8044200000000001,0.05886,-9.437220000000002
303,0.8044200000000001,0.05886,-9.437220000000002
304,0.48069,0.35316000000000003,-8.505270000000001
305,0.48069,0.35316000000000003,-8.505270000000001
306,0.5395500000000001,0.0981,-10.3005
307,0.5395500000000001,0.0981,-10.3005
308,0.5395500000000001,0.0981,-10.3005
309,0.5591700000000001,0.039240000000000004,-9.437220000000002
310,0.5591700000000001,0.039240000000000004,-9.437220000000002
311,0.5984100000000001,0.34335000000000004,-8.70147
312,0.5984100000000001,0.34335000000000004,-8.70147
313,0.5984100000000001,0.34335000000000004,-8.70147
314,0.3924,0.20601000000000003,-10.4967
315,0.3924,0.20601000000000003,-10.4967
316,0.26487,0.21582000000000004,-9.53532
317,0.26487,0.21582000000000004,-9.53532
318,0.28449,0.32373,-9.309690000000002
319,0.28449,0.32373,-9.309690000000002
320,0.28449,0.32373,-9.309690000000002
321,0.34335000000000004,0.04905,-10.91853
322,0.34335000000000004,0.04905,-10.91853
323,0.24525,0.15696000000000002,-9.55494
324,0.24525,0.15696000000000002,-9.55494
325,0.24525,0.15696000000000002,-9.55494
326,0.26487,-0.10791000000000002,-9.69228
327,0.26487,-0.10791000000000002,-9.69228
328,0.26487,-0.10791000000000002,-9.69228
329,0.21582000000000004,-0.019620000000000002,-10.36917
330,0.1962,0.25506,-10.143540000000002
331,0.1962,0.25506,-10.143540000000002
332,0.1962,0.25506,-10.143540000000002
333,0.18639000000000003,0.32373,-9.29007
334,0.18639000000000003,0.32373,-9.29007
335,0.18639000000000003,0.32373,-9.29007
336,0.18639000000000003,0.32373,-9.29007
337,0.13734000000000002,0.23544,-8.505270000000001
338,0.22563000000000002,0.12753,-9.819810000000002
339,0.22563000000000002,0.12753,-9.819810000000002
340,0.22563000000000002,0.12753,-9.819810000000002
341,0.24525,0.10791000000000002,-10.192590000000001
342,0.24525,0.10791000000000002,-10.192590000000001
343,0.15696000000000002,0.04905,-9.633420000000001
344,0.15696000000000002,0.04905,-9.633420000000001
345,0.1962,0.26487,-9.65304
346,0.1962,0.26487,-9.65304
347,0.1962,0.26487,-9.65304
348,0.15696000000000002,0.2943,-9.476460000000001
349,0.15696000000000002,0.2943,-9.476460000000001
350,0.15696000000000002,0.2943,-9.476460000000001
351,0.20601000000000003,0.44145000000000006,-10.418220000000002
352,0.20601000000000003,0.8534700000000001,-10.143540000000002
353,0.20601000000000003,0.8534700000000001,-10.143540000000002
354,0.17658000000000001,0.30411000000000005,-12.84129
355,0.17658000000000001,0.30411000000000005,-12.84129
356,0.17658000000000001,0.30411000000000005,-12.84129
357,0.25506,-0.40221000000000007,-9.82962
358,0.25506,-0.40221000000000007,-9.82962
359,0.25506,-0.40221000000000007,-9.82962
360,0.20601000000000003,-1.5794100000000002,-10.712520000000001
361,0.20601000000000003,-1.5794100000000002,-10.712520000000001
362,0.16677,-1.6382700000000001,-9.437220000000002
363,0.16677,-1.6382700000000001,-9.437220000000002
364,0.17658000000000001,-1.02024,-10.133730000000002
365,0.17658000000000001,-1.02024,-10.133730000000002
366,0.30411000000000005,-0.18639000000000003,-11.20302
367,0.30411000000000005,-0.18639000000000003,-11.20302
368,0.30411000000000005,-0.18639000000000003,-11.20302
369,0.20601000000000003,0.30411000000000005,-11.70333
370,0.20601000000000003,0.30411000000000005,-11.70333
371,0.20601000000000003,0.30411000000000005,-11.70333
372,0.36297,0.14715,-12.70395
373,0.36297,0.14715,-12.70395
374,0.36297,0.14715,-12.70395
375,0.38259000000000004,-0.06867000000000001,-13.72419
376,0.4316400000000001,0.16677,-12.98844
377,0.4316400000000001,0.16677,-12.98844
378,0.4316400000000001,0.16677,-12.98844
379,0.40221000000000007,0.08829000000000001,-11.889720000000002
380,0.40221000000000007,0.08829000000000001,-11.889720000000002
381,0.40221000000000007,0.08829000000000001,-11.889720000000002
382,0.5591700000000001,0.2943,-11.86029
383,0.5591700000000001,0.2943,-11.86029
384,0.5395500000000001,0.32373,-10.3986
385,0.5395500000000001,0.32373,-10.3986
386,0.72594,-0.019620000000000002,-11.467890000000002
387,0.72594,-0.019620000000000002,-11.467890000000002
388,0.89271,0.009810000000000001,-11.772
389,0.89271,0.009810000000000001,-11.772
390,0.89271,0.009810000000000001,-11.772
391,0.9319500000000001,0.15696000000000002,-9.447030000000002
392,0.9319500000000001,0.15696000000000002,-9.447030000000002
393,1.1281500000000002,0.02943,-10.11411
394,1.1281500000000002,0.02943,-10.11411
395,1.1281500000000002,0.02943,-10.11411
396,1.2556800000000001,0.28449,-9.84924
397,1.2556800000000001,0.28449,-9.84924
398,1.2851100000000002,0.24525,-9.201780000000001
399,1.2851100000000002,0.24525,-9.201780000000001
400,1.42245,0.30411000000000005,-9.56475
401,1.42245,0.30411000000000005,-9.56475
402,1.4028300000000002,0.14715,-9.623610000000001
403,1.4028300000000002,0.14715,-9.623610000000001
404,1.4028300000000002,0.14715,-9.623610000000001
405,1.43226,0.009810000000000001,-9.23121
406,1.43226,0.009810000000000001,-9.23121
407,1.43226,0.009810000000000001,-9.23121
408,1.65789,0.17658000000000001,-9.81
409,1.65789,0.17658000000000001,-9.81
410,1.75599,0.17658000000000001,-8.779950000000001
411,1.75599,0.17658000000000001,-8.779950000000001
412,1.75599,0.17658000000000001,-8.779950000000001
413,1.9325700000000001,0.16677,-10.48689
414,1.9423800000000002,0.26487,-10.192590000000001
415,1.9423800000000002,0.26487,-10.192590000000001
416,1.9423800000000002,0.26487,-10.192590000000001
417,1.9129500000000002,0.16677,-9.29007
418,1.9129500000000002,0.16677,-9.29007
419,1.9129500000000002,0.16677,-9.29007
420,2.0601,0.20601000000000003,-10.40841
421,2.0601,0.20601000000000003,-10.40841
422,2.0601,0.22563000000000002,-9.81
423,2.0601,0.22563000000000002,-9.81
424,2.3249700000000004,0.16677,-10.280880000000002
425,2.3249700000000004,0.16677,-10.280880000000002
426,2.3249700000000004,0.16677,-10.280880000000002
427,2.2366800000000002,0.28449,-10.43784
428,2.2366800000000002,0.28449,-10.43784
429,2.27592,0.20601000000000003,-10.418220000000002
430,2.27592,0.20601000000000003,-10.418220000000002
431,2.34459,0.28449,-10.055250000000001
432,2.34459,0.28449,-10.055250000000001
433,2.34459,0.28449,-10.055250000000001
434,2.4917400000000005,0.10791000000000002,-9.81
435,2.4917400000000005,0.10791000000000002,-9.81
436,2.48193,0.21582000000000004,-10.07487
437,2.48193,0.21582000000000004,-10.07487
438,2.5113600000000003,0.26487,-9.908100000000001
439,2.5113600000000003,0.26487,-9.908100000000001
440,2.5113600000000003,0.26487,-9.908100000000001
441,2.4525,0.2943,-10.11411
442,2.4525,0.2943,-10.11411
443,2.38383,0.24525,-9.486270000000001
444,2.38383,0.24525,-9.486270000000001
445,2.38383,0.24525,-9.486270000000001
446,2.4426900000000002,0.15696000000000002,-9.82962
447,2.4426900000000002,0.15696000000000002,-9.82962
448,2.52117,0.25506,-9.633420000000001
449,2.52117,0.25506,-9.633420000000001
450,2.52117,0.25506,-9.633420000000001
451,2.4917400000000005,0.33354,-9.82962
452,2.4917400000000005,0.33354,-9.82962
453,2.3936400000000004,0.36297,-9.36855
454,2.3936400000000004,0.36297,-9.36855
455,2.4525,0.04905,-9.03501
456,2.4525,0.04905,-9.03501
457,2.4525,0.04905,-9.03501
458,2.46231,0.22563000000000002,-8.89767
459,2.46231,0.22563000000000002,-8.89767
460,2.4721200000000003,0.1962,-9.682470000000002
461,2.4721200000000003,0.1962,-9.682470000000002
462,2.4721200000000003,0.1962,-9.682470000000002
463,2.4034500000000003,0.30411000000000005,-9.437220000000002
464,2.4034500000000003,0.30411000000000005,-9.437220000000002
465,2.4721200000000003,0.32373,-9.82962
466,2.4721200000000003,0.32373,-9.82962
467,2.4721200000000003,0.32373,-9.82962
468,2.4721200000000003,0.26487,-10.07487
469,2.4721200000000003,0.26487,-10.07487
470,2.41326,0.42183000000000004,-9.486270000000001
471,2.41326,0.42183000000000004,-9.486270000000001
472,2.41326,0.42183000000000004,-9.486270000000001
473,2.4525,0.0,-9.24102
474,2.4525,0.0,-9.24102
475,2.4721200000000003,0.21582000000000004,-8.740710000000002
476,2.4721200000000003,0.21582000000000004,-8.740710000000002
477,2.4721200000000003,0.41202000000000005,-9.339120000000001
478,2.4721200000000003,0.41202000000000005,-9.339120000000001
479,2.4721200000000003,0.41202000000000005,-9.339120000000001
480,2.4525,0.23544,-8.84862
481,2.4525,0.23544,-8.84862
482,2.4328800000000004,0.06867000000000001,-9.14292
483,2.4328800000000004,0.06867000000000001,-9.14292
484,2.5015500000000004,0.1962,-9.888480000000001
485,2.5015500000000004,0.1962,-9.888480000000001
486,2.41326,0.08829000000000001,-9.623610000000001
487,2.41326,0.08829000000000001,-9.623610000000001
488,2.41326,0.08829000000000001,-9.623610000000001
489,2.4426900000000002,0.05886,-8.56413
490,2.4426900000000002,0.05886,-8.56413
491,2.4426900000000002,0.05886,-8.56413
492,2.4426900000000002,0.18639000000000003,-9.898290000000001
493,2.4426900000000002,0.18639000000000003,-9.898290000000001
494,2.54079,0.5395500000000001,-7.347690000000001
495,2.54079,0.5395500000000001,-7.347690000000001
496,2.4525,-0.12753,-9.633420000000001
497,2.4525,-0.12753,-9.633420000000001
498,2.4525,-0.12753,-9.633420000000001
499,2.5702200000000004,-0.06867000000000001,-9.64323
500,2.5702200000000004,-0.06867000000000001,-9.64323
501,2.5702200000000004,-0.06867000000000001,-9.64323
502,2.58984,0.24525,-9.09387
503,2.53098,0.75537,-10.08468
504,2.53098,0.75537,-10.08468
505,2.53098,0.75537,-10.08468
506,2.4917400000000005,0.5591700000000001,-7.779330000000001
507,2.4917400000000005,0.5591700000000001,-7.779330000000001
508,2.5113600000000003,-0.23544,-10.02582
509,2.5113600000000003,-0.23544,-10.02582
510,2.5113600000000003,-0.23544,-10.02582
511,2.53098,0.02943,-10.3005
512,2.53098,0.02943,-10.3005
513,2.59965,0.47088,-9.14292
514,2.59965,0.47088,-9.14292
515,2.59965,0.5886,-8.99577
516,2.59965,0.5886,-8.99577
517,2.59965,0.5886,-8.99577
518,2.54079,0.22563000000000002,-9.015390000000002
519,2.54079,0.22563000000000002,-9.015390000000002
520,2.54079,0.22563000000000002,-9.015390000000002
521,2.60946,0.4316400000000001,-9.064440000000001
522,2.60946,0.4316400000000001,-9.064440000000001
523,2.48193,0.14715,-9.67266
524,2.48193,0.14715,-9.67266
525,2.6487000000000003,0.0,-9.93753
526,2.6487000000000003,0.0,-9.93753
527,2.6487000000000003,0.0,-9.93753
528,2.58984,0.22563000000000002,-9.64323
529,2.58984,0.22563000000000002,-9.64323
530,2.54079,0.21582000000000004,-9.191970000000001
531,2.54079,0.21582000000000004,-9.191970000000001
532,2.54079,0.21582000000000004,-9.191970000000001
533,2.59965,0.24525,-9.74133
534,2.59965,0.24525,-9.74133
535,2.5604100000000005,0.33354,-9.53532
536,2.5604100000000005,0.33354,-9.53532
537,2.5604100000000005,0.02943,-10.133730000000002
538,2.5604100000000005,0.02943,-10.133730000000002
539,2.5604100000000005,0.02943,-10.133730000000002
540,2.54079,0.08829000000000001,-9.162540000000002
541,2.54079,0.08829000000000001,-9.162540000000002
542,2.58984,0.07848000000000001,-9.64323
543,2.58984,0.07848000000000001,-9.64323
544,2.58984,0.07848000000000001,-9.64323
545,2.58984,0.07848000000000001,-9.64323
546,2.58984,0.07848000000000001,-9.64323
547,2.61927,0.25506,-9.03501
548,2.61927,0.25506,-9.03501
549,2.61927,0.25506,-9.03501
550,2.61927,0.25506,-9.03501
551,2.61927,0.25506,-9.03501
552,2.6781300000000003,0.23544,-9.15273
553,2.6781300000000003,0.23544,-9.15273
554,2.6781300000000003,0.23544,-9.15273
555,2.6781300000000003,0.23544,-9.15273
556,2.6781300000000003,0.23544,-9.15273
557,2.6388900000000004,0.66708,-9.35874
558,2.6388900000000004,0.66708,-9.35874
559,2.6388900000000004,0.66708,-9.35874
560,2.6388900000000004,0.66708,-9.35874
561,2.6388900000000004,0.66708,-9.35874
562,2.58984,0.36297,-9.996390000000002
563,2.58984,0.36297,-9.996390000000002
564,2.5604100000000005,0.24525,-9.83943
565,2.5604100000000005,0.24525,-9.83943
566,2.5604100000000005,0.24525,-9.83943
567,2.54079,0.06867000000000001,-9.59418
568,2.7369900000000005,0.15696000000000002,-9.888480000000001
569,2.7369900000000005,0.15696000000000002,-9.888480000000001
570,2.7369900000000005,0.15696000000000002,-9.888480000000001
571,2.7369900000000005,0.15696000000000002,-9.888480000000001
572,2.70756,0.31392000000000003,-8.7309
573,2.70756,0.31392000000000003,-8.7309
574,2.68794,-0.009810000000000001,-8.829
575,2.68794,-0.009810000000000001,-8.829
576,2.62908,0.37278000000000006,-9.36855
577,2.62908,0.37278000000000006,-9.36855
578,2.6487000000000003,0.019620000000000002,-9.36855
579,2.6487000000000003,0.019620000000000002,-9.36855
580,2.6487000000000003,0.019620000000000002,-9.36855
581,2.66832,0.2943,-9.17235
582,2.66832,0.2943,-9.17235
583,2.66832,0.2943,-9.17235
584,2.6487000000000003,0.07848000000000001,-9.908100000000001
585,2.6487000000000003,0.07848000000000001,-9.908100000000001
586,2.7468000000000004,0.17658000000000001,-9.66285
587,2.7468000000000004,0.17658000000000001,-9.66285
588,2.61927,0.44145000000000006,-9.191970000000001
589,2.61927,0.44145000000000006,-9.191970000000001
590,2.7958500000000006,0.34335000000000004,-8.524890000000001
591,2.7958500000000006,0.34335000000000004,-8.524890000000001
592,2.7958500000000006,0.34335000000000004,-8.524890000000001
593,2.69775,0.73575,-8.927100000000001
594,2.69775,0.73575,-8.927100000000001
595,2.69775,0.73575,-8.927100000000001
596,2.7566100000000002,0.8436600000000001,-9.28026
597,2.7566100000000002,0.8436600000000001,-9.28026
598,2.76642,1.00062,-8.75052
599,2.76642,1.00062,-8.75052
600,2.76642,1.00062,-8.75052
601,2.83509,0.6867000000000001,-8.98596
602,2.83509,0.6867000000000001,-8.98596
603,2.8252800000000002,0.28449,-10.712520000000001
604,2.8252800000000002,0.28449,-10.712520000000001
605,2.87433,-0.019620000000000002,-9.770760000000001
606,2.87433,-0.019620000000000002,-9.770760000000001
607,2.8449,0.15696000000000002,-11.03625
608,2.8449,0.15696000000000002,-11.03625
609,2.8449,0.15696000000000002,-11.03625
610,2.76642,0.13734000000000002,-11.301120000000001
611,2.76642,0.13734000000000002,-11.301120000000001
612,2.8252800000000002,0.69651,-11.271690000000001
613,2.8252800000000002,0.69651,-11.271690000000001
614,2.8252800000000002,0.69651,-11.271690000000001
615,2.70756,0.25506,-10.791
616,2.70756,0.25506,-10.791
617,2.70756,0.25506,-10.791
618,2.7369900000000005,0.22563000000000002,-12.203640000000002
619,2.62908,-0.06867000000000001,-11.291310000000001
620,2.62908,-0.06867000000000001,-11.291310000000001
621,2.62908,-0.06867000000000001,-11.291310000000001
622,2.7369900000000005,0.50031,-11.32074
623,2.7369900000000005,0.50031,-11.32074
624,2.6388900000000004,0.31392000000000003,-11.31093
625,2.6388900000000004,0.31392000000000003,-11.31093
626,2.58984,-0.05886,-10.467270000000001
627,2.58984,-0.05886,-10.467270000000001
628,2.58984,-0.05886,-10.467270000000001
629,2.70756,0.30411000000000005,-11.51694
630,2.70756,0.30411000000000005,-11.51694
631,2.66832,-0.06867000000000001,-9.731520000000002
632,2.66832,-0.06867000000000001,-9.731520000000002
633,2.69775,-0.019620000000000002,-10.64385
634,2.69775,-0.019620000000000002,-10.64385
635,2.69775,-0.019620000000000002,-10.64385
636,2.60946,0.009810000000000001,-9.898290000000001
637,2.60946,0.009810000000000001,-9.898290000000001
638,2.66832,0.31392000000000003,-9.82962
639,2.66832,0.31392000000000003,-9.82962
640,2.66832,0.31392000000000003,-9.82962
641,2.59965,0.039240000000000004,-9.23121
642,2.59965,0.039240000000000004,-9.23121
643,2.59965,0.039240000000000004,-9.23121
644,2.69775,0.0,-9.309690000000002
645,2.69775,0.0,-9.309690000000002
646,2.60946,0.10791000000000002,-9.00558
647,2.60946,0.10791000000000002,-9.00558
648,2.60946,0.10791000000000002,-9.00558
649,2.6388900000000004,0.05886,-9.04482
650,2.6388900000000004,0.05886,-9.04482
651,2.61927,0.02943,-9.397980000000002
652,2.61927,0.02943,-9.397980000000002
653,2.70756,0.039240000000000004,-8.524890000000001
654,2.70756,0.039240000000000004,-8.524890000000001
655,2.7173700000000003,0.24525,-9.486270000000001
656,2.7173700000000003,0.24525,-9.486270000000001
657,2.7173700000000003,0.24525,-9.486270000000001
658,2.78604,0.039240000000000004,-8.98596
659,2.78604,0.039240000000000004,-8.98596
660,2.78604,0.039240000000000004,-8.98596
661,2.7173700000000003,0.18639000000000003,-9.447030000000002
662,2.7173700000000003,0.18639000000000003,-9.447030000000002
663,2.7173700000000003,0.10791000000000002,-9.329310000000001
664,2.7173700000000003,0.10791000000000002,-9.329310000000001
665,2.7173700000000003,0.10791000000000002,-9.329310000000001
666,2.76642,0.48069,-9.5157
667,2.76642,0.48069,-9.5157
668,2.7566100000000002,0.17658000000000001,-8.90748
669,2.7566100000000002,0.17658000000000001,-8.90748
670,2.7369900000000005,0.21582000000000004,-10.47708
671,2.7369900000000005,0.21582000000000004,-10.47708
672,2.8056600000000005,0.13734000000000002,-10.143540000000002
673,2.8056600000000005,0.13734000000000002,-10.143540000000002
674,2.8056600000000005,0.13734000000000002,-10.143540000000002
675,2.7173700000000003,0.28449,-9.476460000000001
676,2.7173700000000003,0.28449,-9.476460000000001
677,2.7369900000000005,0.11772,-9.37836
678,2.7369900000000005,0.11772,-9.37836
679,2.7369900000000005,0.11772,-9.37836
680,2.72718,0.2943,-9.859050000000002
681,2.72718,0.2943,-9.859050000000002
682,2.77623,0.039240000000000004,-9.025200000000002
683,2.77623,0.039240000000000004,-9.025200000000002
684,2.66832,0.26487,-8.81919
685,2.66832,0.26487,-8.81919
686,2.66832,0.26487,-8.81919
687,2.8939500000000002,0.18639000000000003,-9.45684
688,2.8939500000000002,0.18639000000000003,-9.45684
689,2.8154700000000004,0.17658000000000001,-9.447030000000002
690,2.8154700000000004,0.17658000000000001,-9.447030000000002
691,2.8154700000000004,0.17658000000000001,-9.447030000000002
692,2.8841400000000004,0.1962,-8.358120000000001
693,2.8841400000000004,0.1962,-8.358120000000001
694,2.76642,0.14715,-9.260640000000002
695,2.76642,0.14715,-9.260640000000002
696,2.93319,0.36297,-9.03501
697,2.93319,0.36297,-9.03501
698,2.93319,0.36297,-9.03501
699,2.8056600000000005,0.17658000000000001,-9.24102
700,2.8056600000000005,0.17658000000000001,-9.24102
701,2.9233800000000003,0.37278000000000006,-8.878050000000002
702,2.9233800000000003,0.37278000000000006,-8.878050000000002
703,2.9233800000000003,0.37278000000000006,-8.878050000000002
704,2.78604,0.24525,-9.09387
705,2.78604,0.24525,-9.09387
706,2.9822400000000004,0.009810000000000001,-8.70147
707,2.9822400000000004,0.009810000000000001,-8.70147
708,2.86452,0.0981,-8.95653
709,2.86452,0.0981,-8.95653
710,2.9626200000000003,0.0981,-9.760950000000001
711,2.9626200000000003,0.0981,-9.760950000000001
712,2.9626200000000003,0.0981,-9.760950000000001
713,2.9626200000000003,-0.009810000000000001,-8.95653
714,2.9626200000000003,-0.009810000000000001,-8.95653
715,2.8547100000000003,0.44145000000000006,-10.09449
716,2.8547100000000003,0.44145000000000006,-10.09449
717,2.8547100000000003,0.44145000000000006,-10.09449
718,2.8939500000000002,0.32373,-8.68185
719,2.8939500000000002,0.32373,-8.68185
720,2.8939500000000002,0.32373,-8.68185
721,2.8252800000000002,0.14715,-9.908100000000001
722,2.87433,-0.05886,-9.28026
723,2.87433,-0.05886,-9.28026
724,2.87433,-0.05886,-9.28026
725,2.83509,0.17658000000000001,-9.27045
726,2.83509,0.17658000000000001,-9.27045
727,2.9626200000000003,0.35316000000000003,-9.38817
728,2.9626200000000003,0.35316000000000003,-9.38817
729,2.9626200000000003,0.35316000000000003,-9.38817
730,2.8547100000000003,0.23544,-8.84862
731,2.8547100000000003,0.23544,-8.84862
732,3.03129,0.22563000000000002,-8.887860000000002
733,3.03129,0.22563000000000002,-8.887860000000002
734,3.03129,0.22563000000000002,-8.887860000000002
735,2.93319,0.14715,-9.14292
736,2.93319,0.14715,-9.14292
737,2.93319,0.14715,-9.14292
738,2.93319,0.34335000000000004,-9.1233
739,2.93319,0.34335000000000004,-9.1233
740,3.0607200000000003,0.10791000000000002,-8.927100000000001
741,3.0607200000000003,0.10791000000000002,-8.927100000000001
742,2.95281,0.28449,-9.38817
743,2.95281,0.28449,-9.38817
744,2.95281,0.28449,-9.38817
745,3.0411000000000006,0.33354,-8.27964
746,2.95281,0.26487,-8.789760000000001
747,2.95281,0.26487,-8.789760000000001
748,2.95281,0.26487,-8.789760000000001
749,2.95281,0.26487,-8.789760000000001
750,3.08034,-0.10791000000000002,-9.329310000000001
751,3.08034,-0.10791000000000002,-9.329310000000001
752,2.9724300000000006,0.039240000000000004,-9.70209
753,2.9724300000000006,0.039240000000000004,-9.70209
754,3.03129,0.22563000000000002,-9.633420000000001
755,3.03129,0.22563000000000002,-9.633420000000001
756,2.9724300000000006,-0.009810000000000001,-9.11349
757,2.9724300000000006,-0.009810000000000001,-9.11349
758,2.9724300000000006,-0.009810000000000001,-9.11349
759,2.9724300000000006,0.17658000000000001,-10.172970000000001
760,2.9724300000000006,0.17658000000000001,-10.172970000000001
761,3.08034,0.3924,-9.45684
762,3.08034,0.3924,-9.45684
763,2.9920500000000003,0.04905,-9.87867
764,2.9920500000000003,0.04905,-9.87867
765,2.9920500000000003,0.18639000000000003,-9.27045
766,2.9920500000000003,0.18639000000000003,-9.27045
767,2.9920500000000003,0.18639000000000003,-9.27045
768,3.0607200000000003,-0.05886,-9.898290000000001
769,3.0607200000000003,-0.05886,-9.898290000000001
770,3.0607200000000003,-0.05886,-9.898290000000001
771,3.01167,0.21582000000000004,-9.53532
772,3.01167,0.21582000000000004,-9.53532
773,3.0411000000000006,0.11772,-8.838810000000002
774,3.0411000000000006,0.11772,-8.838810000000002
775,2.95281,0.16677,-9.37836
776,2.95281,0.16677,-9.37836
777,3.09015,0.08829000000000001,-8.76033
778,3.09015,0.08829000000000001,-8.76033
779,3.09015,0.08829000000000001,-8.76033
780,3.09015,0.08829000000000001,-8.76033
781,3.01167,0.20601000000000003,-9.074250000000001
782,3.01167,0.20601000000000003,-9.074250000000001
783,3.01167,0.2943,-9.79038
784,3.01167,0.2943,-9.79038
785,2.95281,0.26487,-9.17235
786,2.95281,0.26487,-9.17235
787,2.87433,0.1962,-9.36855
788,2.87433,0.1962,-9.36855
789,2.87433,0.1962,-9.36855
790,3.02148,0.16677,-9.79038
791,3.02148,0.16677,-9.79038
792,2.93319,0.07848000000000001,-9.42741
793,2.93319,0.07848000000000001,-9.42741
794,2.9822400000000004,0.17658000000000001,-8.44641
795,2.9822400000000004,0.17658000000000001,-8.44641
796,2.9822400000000004,0.17658000000000001,-8.44641
797,3.00186,-0.019620000000000002,-9.35874
798,3.00186,-0.019620000000000002,-9.35874
799,3.00186,-0.019620000000000002,-9.35874
800,2.9626200000000003,0.23544,-8.69166
801,2.9626200000000003,0.23544,-8.69166
802,3.07053,0.35316000000000003,-8.55432
803,3.07053,0.35316000000000003,-8.55432
804,3.08034,0.32373,-8.770140000000001
805,3.08034,0.32373,-8.770140000000001
806,3.08034,0.32373,-8.770140000000001
807,3.1293900000000003,0.35316000000000003,-8.603370000000002
808,3.1293900000000003,0.35316000000000003,-8.603370000000002
809,3.14901,-0.039240000000000004,-8.770140000000001
810,3.14901,-0.039240000000000004,-8.770140000000001
811,3.14901,-0.039240000000000004,-8.770140000000001
812,3.0999600000000003,0.17658000000000001,-9.37836
813,3.0999600000000003,0.17658000000000001,-9.37836
814,3.2274900000000004,0.23544,-8.927100000000001
815,3.2274900000000004,0.23544,-8.927100000000001
816,3.10977,0.24525,-9.11349
817,3.10977,0.24525,-9.11349
818,3.10977,0.24525,-9.11349
819,3.25692,0.1962,-9.25083
820,3.25692,0.1962,-9.25083
821,3.25692,0.1962,-9.25083
822,3.1588200000000004,-0.019620000000000002,-9.10368
823,3.19806,0.1962,-9.42741
824,3.19806,0.1962,-9.42741
825,3.19806,0.1962,-9.42741
826,3.2274900000000004,0.18639000000000003,-9.27045
827,3.2274900000000004,0.18639000000000003,-9.27045
828,3.1293900000000003,0.0,-9.486270000000001
829,3.1293900000000003,0.0,-9.486270000000001
830,3.1293900000000003,0.0,-9.486270000000001
831,3.1686300000000003,0.27468000000000004,-9.682470000000002
832,3.1686300000000003,0.27468000000000004,-9.682470000000002
833,3.0999600000000003,0.17658000000000001,-9.7119
834,3.0999600000000003,0.17658000000000001,-9.7119
835,3.0999600000000003,0.17658000000000001,-9.7119
836,3.0999600000000003,0.17658000000000001,-9.7119
837,3.18825,0.25506,-9.682470000000002
838,3.1686300000000003,0.26487,-9.613800000000001
839,3.1686300000000003,0.26487,-9.613800000000001
840,3.09015,0.0,-9.59418
841,3.09015,0.0,-9.59418
842,3.1195800000000005,0.28449,-9.70209
843,3.1195800000000005,0.28449,-9.70209
844,3.1195800000000005,0.28449,-9.70209
845,3.10977,0.13734000000000002,-9.09387
846,3.10977,0.13734000000000002,-9.09387
847,3.09015,0.05886,-9.751140000000001
848,3.09015,0.05886,-9.751140000000001
849,3.09015,0.05886,-9.751140000000001
850,3.14901,0.25506,-9.25083
851,3.14901,0.25506,-9.25083
852,3.10977,-0.02943,-9.00558
853,3.10977,-0.02943,-9.00558
854,3.1392,0.16677,-9.917910000000001
855,3.1392,0.16677,-9.917910000000001
856,3.1392,0.16677,-9.917910000000001
857,3.24711,0.1962,-9.348930000000001
858,3.24711,0.1962,-9.348930000000001
859,3.07053,0.0,-8.98596
860,3.07053,0.0,-8.98596
861,3.07053,0.0,-8.98596
862,3.1588200000000004,0.0,-9.27045
863,3.1588200000000004,0.0,-9.27045
864,3.08034,0.06867000000000001,-9.476460000000001
865,3.08034,0.06867000000000001,-9.476460000000001
866,3.08034,0.06867000000000001,-9.476460000000001
867,3.17844,0.24525,-9.437220000000002
868,3.17844,0.24525,-9.437220000000002
869,3.20787,0.22563000000000002,-9.40779
870,3.20787,0.22563000000000002,-9.40779
871,3.09015,0.12753,-9.623610000000001
872,3.09015,0.12753,-9.623610000000001
873,3.09015,0.12753,-9.623610000000001
874,3.10977,0.22563000000000002,-10.09449
875,3.10977,0.22563000000000002,-10.09449
876,3.1686300000000003,0.33354,-9.13311
877,3.1686300000000003,0.33354,-9.13311
878,3.09015,-0.04905,-9.476460000000001
879,3.09015,-0.04905,-9.476460000000001
880,3.09015,-0.04905,-9.476460000000001
881,3.0411000000000006,0.44145000000000006,-9.13311
882,3.0411000000000006,0.44145000000000006,-9.13311
883,3.1588200000000004,0.12753,-8.97615
884,3.1588200000000004,0.12753,-8.97615
885,3.1588200000000004,0.12753,-8.97615
886,3.1588200000000004,0.12753,-8.97615
887,3.09015,0.30411000000000005,-9.66285
888,3.09015,0.30411000000000005,-9.66285
889,3.1392,0.12753,-9.054630000000001
890,3.1392,0.12753,-9.054630000000001
891,3.01167,0.14715,-9.52551
892,3.02148,0.21582000000000004,-9.65304
893,3.02148,0.21582000000000004,-9.65304
894,3.02148,0.21582000000000004,-9.65304
895,3.10977,0.17658000000000001,-9.11349
896,3.10977,0.17658000000000001,-9.11349
897,3.10977,0.17658000000000001,-9.11349
898,3.00186,0.13734000000000002,-9.59418
899,3.00186,0.13734000000000002,-9.59418
900,3.00186,0.13734000000000002,-9.59418
901,3.08034,0.11772,-10.320120000000001
902,3.08034,0.11772,-10.320120000000001
903,3.0607200000000003,-0.019620000000000002,-8.62299
904,3.0607200000000003,-0.019620000000000002,-8.62299
905,2.9626200000000003,0.06867000000000001,-9.38817
906,2.9626200000000003,0.06867000000000001,-9.38817
907,2.9626200000000003,0.06867000000000001,-9.38817
908,3.17844,-0.009810000000000001,-10.23183
909,3.17844,-0.009810000000000001,-10.23183
910,3.0411000000000006,0.13734000000000002,-8.97615
911,3.0411000000000006,0.13734000000000002,-8.97615
912,2.9724300000000006,0.36297,-9.397980000000002
913,2.9724300000000006,0.36297,-9.397980000000002
914,2.9724300000000006,0.36297,-9.397980000000002
915,3.0999600000000003,0.33354,-9.81
916,3.0999600000000003,0.33354,-9.81
917,2.9920500000000003,0.11772,-9.015390000000002
918,2.9920500000000003,0.11772,-9.015390000000002
919,2.9822400000000004,-0.4905,-9.45684
920,2.9822400000000004,-0.4905,-9.45684
921,2.9822400000000004,-0.4905,-9.45684
922,3.08034,-0.48069,-9.633420000000001
923,3.08034,-0.48069,-9.633420000000001
924,3.08034,-0.48069,-9.633420000000001
925,3.08034,-0.48069,-9.633420000000001
926,3.08034,-0.48069,-9.633420000000001
927,3.1195800000000005,-0.7063200000000001,-9.53532
928,3.1195800000000005,-0.7063200000000001,-9.53532
929,3.1195800000000005,-0.7063200000000001,-9.53532
930,3.1195800000000005,-0.7063200000000001,-9.53532
931,3.1195800000000005,-0.7063200000000001,-9.53532
932,3.3354000000000004,-0.16677,-10.055250000000001
933,3.3354000000000004,-0.16677,-10.055250000000001
934,3.3354000000000004,-0.16677,-10.055250000000001
935,3.3354000000000004,-0.16677,-10.055250000000001
936,3.60027,0.15696000000000002,-11.428650000000001
937,3.60027,0.15696000000000002,-11.428650000000001
938,3.60027,0.15696000000000002,-11.428650000000001
939,3.60027,0.15696000000000002,-11.428650000000001
940,3.60027,0.15696000000000002,-11.428650000000001
941,3.60027,0.15696000000000002,-11.428650000000001
942,3.74742,0.15696000000000002,-13.58685
943,3.74742,0.15696000000000002,-13.58685
944,3.74742,0.15696000000000002,-13.58685
945,3.74742,0.15696000000000002,-13.58685
946,3.74742,0.15696000000000002,-13.58685
947,3.5316000000000005,0.36297,-13.16502
948,3.5316000000000005,0.36297,-13.16502
949,3.5316000000000005,0.36297,-13.16502
950,3.5316000000000005,0.36297,-13.16502
951,3.5316000000000005,0.36297,-13.16502
952,3.4433100000000003,0.4905,-12.380220000000001
953,3.4433100000000003,0.4905,-12.380220000000001
954,3.4433100000000003,0.4905,-12.380220000000001
955,3.4433100000000003,0.4905,-12.380220000000001
956,3.4433100000000003,0.4905,-12.380220000000001
957,3.35502,0.3924,-11.62485
958,3.35502,0.3924,-11.62485
959,3.35502,0.3924,-11.62485
960,3.35502,0.3924,-11.62485
961,3.35502,0.3924,-11.62485
962,3.20787,0.67689,-10.01601
963,3.20787,0.67689,-10.01601
964,3.20787,0.67689,-10.01601
965,3.20787,0.67689,-10.01601
966,3.20787,0.67689,-10.01601
967,3.1686300000000003,0.6082200000000001,-9.966960000000002
968,3.1686300000000003,0.6082200000000001,-9.966960000000002
969,3.1686300000000003,0.6082200000000001,-9.966960000000002
970,3.1686300000000003,0.6082200000000001,-9.966960000000002
971,3.1686300000000003,0.6082200000000001,-9.966960000000002
972,3.1686300000000003,0.6082200000000001,-9.966960000000002
973,3.0509100000000005,0.40221000000000007,-9.10368
974,3.0509100000000005,0.40221000000000007,-9.10368
975,3.0509100000000005,0.40221000000000007,-9.10368
976,3.08034,0.009810000000000001,-8.927100000000001
977,3.08034,0.009810000000000001,-8.927100000000001
978,3.08034,0.009810000000000001,-8.927100000000001
979,3.08034,0.009810000000000001,-8.927100000000001
980,3.08034,0.009810000000000001,-8.927100000000001
981,3.0411000000000006,0.21582000000000004,-8.917290000000001
982,3.0411000000000006,0.21582000000000004,-8.917290000000001
983,3.0411000000000006,0.21582000000000004,-8.917290000000001
984,3.0411000000000006,0.21582000000000004,-8.917290000000001
985,3.0411000000000006,0.21582000000000004,-8.917290000000001
986,3.0411000000000006,0.21582000000000004,-8.917290000000001
987,3.20787,0.009810000000000001,-9.00558
988,3.20787,0.009810000000000001,-9.00558
989,3.20787,0.009810000000000001,-9.00558
990,3.20787,0.009810000000000001,-9.00558
991,3.1293900000000003,0.02943,-9.25083
992,3.1293900000000003,0.02943,-9.25083
993,3.1293900000000003,0.02943,-9.25083
994,3.1293900000000003,0.02943,-9.25083
995,3.1293900000000003,0.02943,-9.25083
996,3.20787,0.26487,-9.00558
997,3.20787,0.26487,-9.00558
998,3.20787,0.26487,-9.00558
999,3.20787,0.26487,-9.00558
1000,3.20787,0.26487,-9.00558
1001,3.20787,0.26487,-9.00558
1002,3.24711,0.2943,-9.084060000000001
1003,3.24711,0.2943,-9.084060000000001
1004,3.24711,0.2943,-9.084060000000001
1005,3.24711,0.2943,-9.084060000000001
1006,3.24711,0.2943,-9.084060000000001
1007,3.2373000000000003,0.24525,-9.584370000000002
1008,3.2373000000000003,0.24525,-9.584370000000002
1009,3.2373000000000003,0.24525,-9.584370000000002
1010,3.2373000000000003,0.24525,-9.584370000000002
1011,3.2373000000000003,0.24525,-9.584370000000002
1012,3.1392,-0.07848000000000001,-8.57394
1013,3.1392,-0.07848000000000001,-8.57394
1014,3.1392,-0.07848000000000001,-8.57394
1015,3.1686300000000003,0.28449,-9.299880000000002
1016,3.1686300000000003,0.28449,-9.299880000000002
1017,3.2863500000000005,0.56898,-9.80019
1018,3.2863500000000005,0.56898,-9.80019
1019,3.26673,0.37278000000000006,-9.69228
1020,3.26673,0.37278000000000006,-9.69228
1021,3.1392,0.02943,-10.11411
1022,3.1392,0.02943,-10.11411
1023,3.1392,0.02943,-10.11411
1024,3.1195800000000005,0.1962,-9.751140000000001
1025,3.1195800000000005,0.1962,-9.751140000000001
1026,3.1195800000000005,0.1962,-9.751140000000001
1027,3.14901,0.38259000000000004,-9.476460000000001
1028,3.14901,0.38259000000000004,-9.476460000000001
1029,3.14901,0.38259000000000004,-9.476460000000001
1030,3.01167,0.23544,-9.82962
1031,3.01167,0.25506,-10.143540000000002
1032,3.01167,0.25506,-10.143540000000002
1033,3.0999600000000003,0.07848000000000001,-9.64323
1034,3.0999600000000003,0.07848000000000001,-9.64323
1035,3.0999600000000003,0.07848000000000001,-9.64323
1036,2.9920500000000003,0.13734000000000002,-9.27045
1037,2.9920500000000003,0.13734000000000002,-9.27045
1038,3.02148,0.06867000000000001,-9.4176
1039,3.02148,0.06867000000000001,-9.4176
1040,3.02148,0.06867000000000001,-9.4176
1041,3.10977,-0.02943,-9.329310000000001
1042,3.10977,-0.02943,-9.329310000000001
1043,3.0411000000000006,-0.06867000000000001,-9.60399
1044,3.0411000000000006,-0.06867000000000001,-9.60399
1045,3.07053,0.34335000000000004,-9.87867
1046,3.07053,0.34335000000000004,-9.87867
1047,3.07053,0.34335000000000004,-9.87867
1048,3.10977,0.06867000000000001,-8.98596
1049,3.10977,0.06867000000000001,-8.98596
1050,2.95281,0.36297,-8.603370000000002
1051,2.95281,0.36297,-8.603370000000002
1052,2.95281,0.36297,-8.603370000000002
1053,3.0509100000000005,0.40221000000000007,-9.45684
1054,3.0509100000000005,0.40221000000000007,-9.45684
1055,3.0607200000000003,0.16677,-9.14292
1056,3.0607200000000003,0.16677,-9.14292
1057,3.0607200000000003,0.16677,-9.14292
1058,3.02148,-0.1962,-9.623610000000001
1059,3.02148,-0.1962,-9.623610000000001
1060,3.00186,0.08829000000000001,-9.819810000000002
1061,3.00186,0.08829000000000001,-9.819810000000002
1062,3.00186,0.08829000000000001,-9.819810000000002
1063,2.9920500000000003,0.33354,-9.211590000000001
1064,2.9920500000000003,0.33354,-9.211590000000001
1065,2.9920500000000003,0.33354,-9.211590000000001
1066,2.9626200000000003,0.039240000000000004,-9.28026
1067,2.9626200000000003,0.039240000000000004,-9.28026
1068,2.9626200000000003,0.28449,-9.015390000000002
1069,3.14901,0.22563000000000002,-9.397980000000002
1070,3.14901,0.22563000000000002,-9.397980000000002
1071,3.14901,0.22563000000000002,-9.397980000000002
1072,3.08034,0.10791000000000002,-9.888480000000001
1073,3.08034,0.10791000000000002,-9.888480000000001
1074,2.93319,0.13734000000000002,-8.18154
1075,2.93319,0.13734000000000002,-8.18154
1076,3.1588200000000004,-0.15696000000000002,-9.04482
1077,3.1588200000000004,-0.15696000000000002,-9.04482
1078,3.1588200000000004,-0.15696000000000002,-9.04482
1079,3.10977,0.18639000000000003,-9.55494
1080,3.10977,0.18639000000000003,-9.55494
1081,3.0999600000000003,0.14715,-8.46603
1082,3.0999600000000003,0.14715,-8.46603
1083,3.0999600000000003,0.14715,-8.46603
1084,3.19806,0.23544,-8.3385
1085,3.19806,0.23544,-8.3385
1086,3.1686300000000003,0.15696000000000002,-9.260640000000002
1087,3.1686300000000003,0.15696000000000002,-9.260640000000002
1088,3.18825,0.46107000000000004,-8.29926
1089,3.18825,0.46107000000000004,-8.29926
1090,3.18825,0.46107000000000004,-8.29926
1091,3.18825,0.22563000000000002,-8.740710000000002
1092,3.18825,0.22563000000000002,-8.740710000000002
1093,3.18825,0.22563000000000002,-8.740710000000002
1094,3.26673,0.24525,-8.84862
1095,3.26673,0.24525,-8.84862
1096,3.1392,-0.02943,-9.025200000000002
1097,3.1392,-0.02943,-9.025200000000002
1098,3.25692,0.24525,-9.27045
1099,3.25692,0.24525,-9.27045
1100,3.4335,0.12753,-9.56475
1101,3.4335,0.12753,-9.56475
1102,3.4335,0.12753,-9.56475
1103,3.4335,0.12753,-9.56475
1104,3.26673,0.18639000000000003,-9.45684
1105,3.25692,0.41202000000000005,-9.682470000000002
1106,3.25692,0.41202000000000005,-9.682470000000002
1107,3.25692,0.41202000000000005,-9.682470000000002
1108,3.1686300000000003,0.13734000000000002,-10.25145
1109,3.1686300000000003,0.13734000000000002,-10.25145
1110,3.1686300000000003,0.13734000000000002,-10.25145
1111,3.18825,-0.0981,-9.79038
1112,3.18825,-0.0981,-9.79038
1113,3.31578,0.30411000000000005,-11.21283
1114,3.31578,0.30411000000000005,-11.21283
1115,3.17844,0.25506,-10.36917
1116,3.17844,0.25506,-10.36917
1117,3.17844,0.25506,-10.36917
1118,3.0509100000000005,-0.009810000000000001,-10.43784
1119,3.0509100000000005,-0.009810000000000001,-10.43784
1120,3.01167,0.33354,-11.261880000000001
1121,3.01167,0.33354,-11.261880000000001
1122,3.01167,0.33354,-11.261880000000001
1123,2.9724300000000006,0.32373,-10.11411
1124,2.9724300000000006,0.32373,-10.11411
1125,2.8547100000000003,0.009810000000000001,-10.92834
1126,2.8547100000000003,0.009810000000000001,-10.92834
1127,2.78604,0.15696000000000002,-10.4967
1128,2.78604,0.15696000000000002,-10.4967
1129,2.78604,0.15696000000000002,-10.4967
1130,2.9135700000000004,-0.009810000000000001,-11.114730000000002
1131,2.9135700000000004,-0.009810000000000001,-11.114730000000002
1132,2.77623,-0.0981,-9.55494
1133,2.77623,-0.0981,-9.55494
1134,2.8056600000000005,0.25506,-10.02582
1135,2.8056600000000005,0.25506,-10.02582
1136,2.90376,0.30411000000000005,-9.45684
1137,2.90376,0.30411000000000005,-9.45684
1138,2.90376,0.30411000000000005,-9.45684
1139,2.87433,0.02943,-9.015390000000002
1140,2.87433,0.02943,-9.015390000000002
1141,2.77623,0.52974,-7.710660000000001
1142,2.77623,0.52974,-7.710660000000001
1143,2.77623,0.52974,-7.710660000000001
1144,3.0411000000000006,0.21582000000000004,-9.24102
1145,3.0411000000000006,0.21582000000000004,-9.24102
1146,2.9920500000000003,0.0,-9.996390000000002
1147,2.9920500000000003,0.0,-9.996390000000002
1148,2.943,0.15696000000000002,-7.7989500000000005
1149,2.943,0.15696000000000002,-7.7989500000000005
1150,2.943,0.15696000000000002,-7.7989500000000005
1151,3.03129,0.23544,-9.11349
1152,3.03129,0.23544,-9.11349
1153,2.9724300000000006,0.20601000000000003,-8.367930000000001
1154,2.9724300000000006,0.20601000000000003,-8.367930000000001
1155,2.9724300000000006,0.20601000000000003,-8.367930000000001
1156,2.9233800000000003,0.02943,-9.25083
1157,2.9233800000000003,0.02943,-9.25083
1158,3.07053,0.37278000000000006,-9.27045
1159,3.07053,0.37278000000000006,-9.27045
1160,3.07053,0.37278000000000006,-9.27045
1161,3.03129,0.18639000000000003,-8.97615
1162,3.03129,0.18639000000000003,-8.97615
1163,2.943,0.31392000000000003,-9.24102
1164,2.943,0.31392000000000003,-9.24102
1165,3.0509100000000005,0.45126000000000005,-9.25083
1166,3.0509100000000005,0.45126000000000005,-9.25083
1167,3.0509100000000005,0.45126000000000005,-9.25083
1168,3.1392,0.14715,-9.03501
1169,3.1392,0.14715,-9.03501
1170,3.1392,0.14715,-9.03501
1171,3.08034,-0.04905,-9.60399
1172,3.08034,-0.04905,-9.60399
1173,3.03129,0.16677,-8.632800000000001
1174,3.03129,0.16677,-8.632800000000001
1175,3.1392,0.07848000000000001,-9.27045
1176,3.1392,0.07848000000000001,-9.27045
1177,3.07053,-0.17658000000000001,-9.70209
1178,3.07053,-0.17658000000000001,-9.70209
1179,3.07053,-0.17658000000000001,-9.70209
1180,3.0999600000000003,0.14715,-9.309690000000002
1181,3.0999600000000003,0.14715,-9.309690000000002
1182,3.0999600000000003,0.14715,-9.309690000000002
1183,3.10977,0.24525,-8.93691
1184,3.10977,0.24525,-8.93691
1185,3.0999600000000003,0.0,-9.60399
1186,3.0999600000000003,0.0,-9.60399
1187,3.07053,0.41202000000000005,-9.82962
1188,3.07053,0.41202000000000005,-9.82962
1189,3.07053,0.41202000000000005,-9.82962
1190,3.07053,0.41202000000000005,-9.82962
1191,3.1392,0.13734000000000002,-9.92772
1192,3.03129,0.2943,-8.85843
1193,3.03129,0.2943,-8.85843
1194,2.8252800000000002,-0.08829000000000001,-9.397980000000002
1195,2.8252800000000002,-0.08829000000000001,-9.397980000000002
1196,3.0607200000000003,0.25506,-9.898290000000001
1197,3.0607200000000003,0.25506,-9.898290000000001
1198,3.0607200000000003,0.25506,-9.898290000000001
1199,3.19806,0.38259000000000004,-10.76157
1200,3.19806,0.38259000000000004,-10.76157
1201,3.19806,0.38259000000000004,-10.76157
1202,3.19806,0.38259000000000004,-10.76157
1203,2.8154700000000004,0.38259000000000004,-8.26983
1204,3.08034,-0.07848000000000001,-9.70209
1205,3.08034,-0.07848000000000001,-9.70209
1206,2.9822400000000004,0.15696000000000002,-8.84862
1207,2.9822400000000004,0.15696000000000002,-8.84862
1208,2.9822400000000004,0.15696000000000002,-8.84862
1209,2.9233800000000003,-0.08829000000000001,-10.48689
1210,2.9233800000000003,-0.08829000000000001,-10.48689
1211,3.00186,0.10791000000000002,-9.5157
1212,3.00186,0.10791000000000002,-9.5157
1213,2.943,0.46107000000000004,-7.53408
1214,2.943,0.46107000000000004,-7.53408
1215,2.943,0.46107000000000004,-7.53408
1216,2.87433,0.02943,-9.45684
1217,2.87433,0.02943,-9.45684
1218,2.9233800000000003,0.32373,-9.50589
1219,2.9233800000000003,0.32373,-9.50589
1220,2.9233800000000003,0.32373,-9.50589
1221,3.24711,-0.019620000000000002,-10.791
1222,3.24711,-0.019620000000000002,-10.791
1223,3.01167,0.04905,-8.81919
1224,3.01167,0.04905,-8.81919
1225,3.01167,0.04905,-8.81919
1226,3.00186,0.26487,-8.30907
1227,3.00186,0.26487,-8.30907
1228,3.14901,0.08829000000000001,-8.89767
1229,3.14901,0.08829000000000001,-8.89767
1230,3.3059700000000003,-0.20601000000000003,-9.35874
1231,3.3059700000000003,-0.20601000000000003,-9.35874
1232,3.3059700000000003,-0.20601000000000003,-9.35874
1233,3.0607200000000003,0.009810000000000001,-8.779950000000001
1234,3.0607200000000003,0.009810000000000001,-8.779950000000001
1235,3.1195800000000005,0.50031,-9.339120000000001
1236,3.1195800000000005,0.50031,-9.339120000000001
1237,3.20787,0.6376499999999999,-8.93691
1238,3.20787,0.6376499999999999,-8.93691
1239,3.20787,0.6376499999999999,-8.93691
1240,3.0509100000000005,0.25506,-8.642610000000001
1241,3.0509100000000005,0.25506,-8.642610000000001
1242,3.0509100000000005,0.25506,-8.642610000000001
1243,2.9724300000000006,0.14715,-8.97615
1244,2.9724300000000006,0.14715,-8.97615
1245,3.1392,0.11772,-10.75176
1246,3.1392,0.11772,-10.75176
1247,3.00186,0.07848000000000001,-9.584370000000002
1248,3.00186,0.07848000000000001,-9.584370000000002
1249,3.00186,0.07848000000000001,-9.584370000000002
1250,2.9135700000000004,0.34335000000000004,-9.35874
1251,2.9135700000000004,0.34335000000000004,-9.35874
1252,3.07053,0.30411000000000005,-9.819810000000002
1253,3.07053,0.30411000000000005,-9.819810000000002
1254,3.0509100000000005,0.039240000000000004,-8.927100000000001
1255,3.0509100000000005,0.039240000000000004,-8.927100000000001
1256,3.0509100000000005,0.039240000000000004,-8.927100000000001
1257,2.9724300000000006,0.10791000000000002,-7.995150000000001
1258,2.9724300000000006,0.10791000000000002,-7.995150000000001
1259,3.0411000000000006,0.34335000000000004,-9.36855
1260,3.0411000000000006,0.34335000000000004,-9.36855
1261,3.0411000000000006,0.34335000000000004,-9.36855
1262,3.0999600000000003,0.48069,-10.36917
1263,3.0999600000000003,0.48069,-10.36917
1264,2.9822400000000004,0.22563000000000002,-7.779330000000001
1265,2.9822400000000004,0.22563000000000002,-7.779330000000001
1266,2.9233800000000003,0.009810000000000001,-9.015390000000002
1267,2.9233800000000003,0.009810000000000001,-9.015390000000002
1268,3.0411000000000006,-0.17658000000000001,-10.43784
1269,3.0411000000000006,-0.17658000000000001,-10.43784
1270,3.0411000000000006,-0.17658000000000001,-10.43784
1271,3.0411000000000006,-0.17658000000000001,-10.43784
1272,2.943,-0.039240000000000004,-9.69228
1273,2.93319,0.33354,-9.329310000000001
1274,2.93319,0.33354,-9.329310000000001
1275,2.93319,0.33354,-9.329310000000001
1276,3.0607200000000003,0.17658000000000001,-8.93691
1277,3.0607200000000003,0.17658000000000001,-8.93691
1278,2.8154700000000004,0.019620000000000002,-6.51384
1279,2.8154700000000004,0.019620000000000002,-6.51384
1280,2.8154700000000004,0.019620000000000002,-6.51384
1281,3.07053,-0.11772,-9.53532
1282,3.07053,-0.11772,-9.53532
1283,2.9233800000000003,0.7063200000000001,-7.857810000000001
1284,2.9233800000000003,0.7063200000000001,-7.857810000000001
1285,3.0999600000000003,0.34335000000000004,-7.838190000000001
1286,3.0999600000000003,0.34335000000000004,-7.838190000000001
1287,3.4138800000000002,0.08829000000000001,-10.21221
1288,3.4138800000000002,0.08829000000000001,-10.21221
1289,3.4138800000000002,0.08829000000000001,-10.21221
1290,3.31578,0.23544,-8.838810000000002
1291,3.31578,0.23544,-8.838810000000002
1292,3.31578,0.23544,-8.838810000000002
1293,3.09015,-0.27468000000000004,-7.44579
1294,3.09015,-0.27468000000000004,-7.44579
1295,3.00186,-0.14715,-8.13249
1296,3.00186,-0.14715,-8.13249
1297,3.09015,0.14715,-9.496080000000001
1298,3.09015,0.14715,-9.496080000000001
1299,3.09015,0.14715,-9.496080000000001
1300,3.24711,0.08829000000000001,-10.68309
1301,3.24711,0.08829000000000001,-10.68309
1302,3.24711,0.08829000000000001,-10.68309
1303,3.01167,0.2943,-9.191970000000001
1304,3.01167,0.2943,-9.191970000000001
1305,3.01167,0.2943,-9.191970000000001
1306,3.1588200000000004,0.38259000000000004,-9.98658
1307,3.1588200000000004,0.38259000000000004,-9.98658
1308,3.1588200000000004,0.38259000000000004,-9.98658
1309,3.1588200000000004,0.38259000000000004,-9.98658
1310,3.1588200000000004,0.11772,-9.67266
1311,3.1588200000000004,0.11772,-9.67266
1312,3.1588200000000004,0.13734000000000002,-11.291310000000001
1313,3.1588200000000004,0.13734000000000002,-11.291310000000001
1314,3.1588200000000004,0.33354,-9.868860000000002
1315,3.1588200000000004,0.33354,-9.868860000000002
1316,3.1588200000000004,0.33354,-9.868860000000002
1317,3.09015,0.28449,-9.14292
1318,3.09015,0.28449,-9.14292
1319,3.09015,0.28449,-9.14292
1320,3.18825,0.0,-10.95777
1321,3.00186,0.27468000000000004,-9.70209
1322,3.00186,0.27468000000000004,-9.70209
1323,3.00186,0.27468000000000004,-9.70209
1324,3.0411000000000006,0.48069,-9.46665
1325,3.0411000000000006,0.48069,-9.46665
1326,3.00186,0.24525,-9.054630000000001
1327,3.00186,0.24525,-9.054630000000001
1328,3.00186,0.24525,-9.054630000000001
1329,2.87433,0.34335000000000004,-9.584370000000002
1330,2.87433,0.34335000000000004,-9.584370000000002
1331,2.87433,0.34335000000000004,-9.584370000000002
1332,3.10977,0.52974,-10.555560000000002
1333,2.943,-0.02943,-8.18154
1334,2.943,-0.02943,-8.18154
1335,2.943,-0.02943,-8.18154
1336,3.0509100000000005,-0.1962,-9.025200000000002
1337,3.0509100000000005,-0.1962,-9.025200000000002
1338,3.03129,0.1962,-9.770760000000001
1339,3.03129,0.1962,-9.770760000000001
1340,3.03129,0.1962,-9.770760000000001
1341,3.07053,0.14715,-8.770140000000001
1342,3.07053,0.14715,-8.770140000000001
1343,3.07053,0.14715,-8.770140000000001
1344,3.09015,-0.21582000000000004,-10.08468
1345,3.09015,-0.21582000000000004,-10.08468
1346,2.93319,0.20601000000000003,-9.36855
1347,2.93319,0.20601000000000003,-9.36855
1348,3.0411000000000006,0.36297,-9.191970000000001
1349,3.0411000000000006,0.36297,-9.191970000000001
1350,2.9724300000000006,0.06867000000000001,-9.17235
1351,2.9724300000000006,0.06867000000000001,-9.17235
1352,2.9724300000000006,0.06867000000000001,-9.17235
1353,3.0999600000000003,-0.039240000000000004,-9.28026
1354,3.0999600000000003,-0.039240000000000004,-9.28026
1355,2.9920500000000003,0.11772,-8.927100000000001
1356,2.9920500000000003,0.11772,-8.927100000000001
1357,3.1392,0.0,-9.3195
1358,3.1392,0.0,-9.3195
1359,3.1392,0.0,-9.3195
1360,3.09015,0.07848000000000001,-9.348930000000001
1361,3.09015,0.07848000000000001,-9.348930000000001
1362,3.09015,0.07848000000000001,-9.348930000000001
1363,2.7468000000000004,-0.06867000000000001,-8.505270000000001
1364,2.7468000000000004,-0.06867000000000001,-8.505270000000001
1365,3.0411000000000006,-0.18639000000000003,-9.819810000000002
1366,3.0411000000000006,-0.18639000000000003,-9.819810000000002
1367,3.03129,0.0981,-8.79957
1368,3.03129,0.0981,-8.79957
1369,3.03129,0.0981,-8.79957
1370,3.01167,0.13734000000000002,-8.93691
1371,3.01167,0.13734000000000002,-8.93691
1372,3.01167,0.13734000000000002,-8.93691
1373,3.08034,0.50031,-8.85843
1374,3.08034,0.50031,-8.85843
1375,3.1195800000000005,0.44145000000000006,-9.074250000000001
1376,3.1195800000000005,0.44145000000000006,-9.074250000000001
1377,3.02148,0.22563000000000002,-8.67204
1378,3.02148,0.22563000000000002,-8.67204
1379,3.02148,0.22563000000000002,-8.67204
1380,2.9822400000000004,0.039240000000000004,-9.633420000000001
1381,3.01167,0.17658000000000001,-9.486270000000001
1382,3.01167,0.17658000000000001,-9.486270000000001
1383,3.01167,0.17658000000000001,-9.486270000000001
1384,2.9920500000000003,-0.04905,-9.03501
1385,2.9920500000000003,-0.04905,-9.03501
1386,2.9135700000000004,0.0,-9.329310000000001
1387,2.9135700000000004,0.0,-9.329310000000001
1388,2.9135700000000004,0.0,-9.329310000000001
1389,3.00186,0.17658000000000001,-9.94734
1390,3.00186,0.17658000000000001,-9.94734
1391,3.00186,0.17658000000000001,-9.94734
1392,3.09015,-0.04905,-9.770760000000001
1393,3.09015,-0.04905,-9.770760000000001
1394,3.01167,0.23544,-8.98596
1395,3.01167,0.23544,-8.98596
1396,3.00186,0.22563000000000002,-8.15211
1397,3.00186,0.22563000000000002,-8.15211
1398,3.1392,0.35316000000000003,-9.29007
1399,3.1392,0.35316000000000003,-9.29007
1400,3.1392,0.35316000000000003,-9.29007
1401,3.19806,-0.019620000000000002,-9.5157
1402,3.19806,-0.019620000000000002,-9.5157
1403,3.19806,-0.019620000000000002,-9.5157
1404,3.1195800000000005,-0.0981,-8.98596
1405,3.1195800000000005,-0.0981,-8.98596
1406,2.9822400000000004,0.0,-9.03501
1407,2.9822400000000004,0.0,-9.03501
1408,3.0411000000000006,0.10791000000000002,-9.27045
1409,3.0411000000000006,0.10791000000000002,-9.27045
1410,3.0411000000000006,0.10791000000000002,-9.27045
1411,3.03129,0.17658000000000001,-10.035630000000001
1412,3.03129,0.17658000000000001,-10.035630000000001
1413,3.0607200000000003,0.07848000000000001,-9.966960000000002
1414,3.0607200000000003,0.07848000000000001,-9.966960000000002
1415,3.0607200000000003,0.07848000000000001,-9.966960000000002
1416,3.0607200000000003,0.46107000000000004,-9.496080000000001
1417,3.0607200000000003,0.46107000000000004,-9.496080000000001
1418,3.1195800000000005,0.0981,-9.14292
1419,3.1195800000000005,0.0981,-9.14292
1420,2.9822400000000004,0.0,-8.4366
1421,2.9822400000000004,0.0,-8.4366
1422,2.9822400000000004,0.0,-8.4366
1423,3.02148,0.2943,-10.27107
1424,3.02148,0.2943,-10.27107
1425,3.10977,0.0981,-9.74133
1426,3.10977,0.0981,-9.74133
1427,3.10977,0.0981,-9.74133
1428,3.0411000000000006,-0.21582000000000004,-9.65304
1429,3.0411000000000006,-0.21582000000000004,-9.65304
1430,3.09015,-0.23544,-10.65366
1431,3.09015,-0.23544,-10.65366
1432,3.09015,-0.23544,-10.65366
1433,3.0607200000000003,0.02943,-8.387550000000001
1434,3.00186,-0.15696000000000002,-9.23121
1435,3.00186,-0.15696000000000002,-9.23121
1436,3.00186,-0.15696000000000002,-9.23121
1437,3.1195800000000005,0.12753,-9.819810000000002
1438,3.1195800000000005,0.12753,-9.819810000000002
1439,3.18825,0.32373,-9.92772
1440,3.18825,0.32373,-9.92772
1441,3.18825,0.32373,-9.92772
1442,3.26673,0.33354,-9.28026
1443,3.26673,0.33354,-9.28026
1444,3.26673,0.33354,-9.28026
1445,3.19806,0.0981,-8.75052
1446,3.1293900000000003,0.009810000000000001,-9.898290000000001
1447,3.1293900000000003,0.009810000000000001,-9.898290000000001
1448,3.1293900000000003,0.009810000000000001,-9.898290000000001
1449,3.07053,0.23544,-10.01601
1450,3.07053,0.23544,-10.01601
1451,3.1293900000000003,0.48069,-9.18216
1452,3.1293900000000003,0.48069,-9.18216
1453,3.10977,0.25506,-9.50589
1454,3.10977,0.25506,-9.50589
1455,3.10977,0.25506,-9.50589
1456,2.943,0.30411000000000005,-9.201780000000001
1457,2.943,0.30411000000000005,-9.201780000000001
1458,3.0999600000000003,0.18639000000000003,-9.29007
1459,3.0999600000000003,0.18639000000000003,-9.29007
1460,3.0999600000000003,0.18639000000000003,-9.29007
1461,3.10977,0.1962,-10.02582
1462,3.10977,0.1962,-10.02582
1463,3.10977,0.1962,-10.02582
1464,2.9724300000000006,0.13734000000000002,-9.24102
1465,2.9724300000000006,0.13734000000000002,-9.24102
1466,2.87433,0.05886,-8.90748
1467,3.0607200000000003,0.08829000000000001,-10.035630000000001
1468,3.0607200000000003,0.08829000000000001,-10.035630000000001
1469,3.0607200000000003,0.08829000000000001,-10.035630000000001
1470,3.0607200000000003,0.08829000000000001,-10.035630000000001
1471,3.0999600000000003,0.16677,-8.887860000000002
1472,3.0999600000000003,0.16677,-8.887860000000002
1473,2.87433,0.17658000000000001,-8.89767
1474,2.87433,0.17658000000000001,-8.89767
1475,2.87433,0.17658000000000001,-8.89767
1476,2.943,0.15696000000000002,-9.7119
1477,2.943,0.15696000000000002,-9.7119
1478,3.08034,0.24525,-8.99577
1479,3.08034,0.24525,-8.99577
1480,3.08034,0.24525,-8.99577
1481,3.01167,-0.009810000000000001,-9.2214
1482,3.01167,-0.009810000000000001,-9.2214
1483,3.02148,0.25506,-8.89767
1484,3.02148,0.25506,-8.89767
1485,3.02148,0.35316000000000003,-8.95653
1486,3.02148,0.35316000000000003,-8.95653
1487,3.1588200000000004,-0.07848000000000001,-8.593560000000002
1488,3.1588200000000004,-0.07848000000000001,-8.593560000000002
1489,3.1588200000000004,-0.07848000000000001,-8.593560000000002
1490,3.0999600000000003,-0.11772,-8.48565
1491,3.0999600000000003,-0.11772,-8.48565
1492,3.14901,-0.11772,-9.054630000000001
1493,3.14901,-0.11772,-9.054630000000001
1494,3.14901,-0.11772,-9.054630000000001
1495,3.2176800000000005,0.18639000000000003,-9.015390000000002
1496,3.32559,0.31392000000000003,-8.44641
1497,3.32559,0.31392000000000003,-8.44641
1498,3.32559,0.31392000000000003,-8.44641
1499,3.4040700000000004,0.11772,-8.81919
1500,3.4040700000000004,0.11772,-8.81919
1501,3.4040700000000004,0.11772,-8.81919
1502,3.31578,0.0981,-9.7119
1503,3.31578,0.0981,-9.7119
1504,3.24711,0.36297,-10.310310000000001
1505,3.24711,0.36297,-10.310310000000001
1506,3.25692,0.05886,-10.4967
1507,3.25692,0.05886,-10.4967
1508,3.25692,0.05886,-10.4967
1509,3.08034,-0.019620000000000002,-9.682470000000002
1510,3.08034,-0.019620000000000002,-9.682470000000002
1511,3.03129,0.039240000000000004,-10.23183
1512,3.03129,0.039240000000000004,-10.23183
1513,3.03129,0.039240000000000004,-10.23183
1514,3.0999600000000003,0.28449,-9.84924
1515,3.0999600000000003,0.28449,-9.84924
1516,3.2176800000000005,0.02943,-9.770760000000001
1517,3.2176800000000005,0.02943,-9.770760000000001
1518,3.2176800000000005,0.02943,-9.770760000000001
1519,3.02148,-0.009810000000000001,-9.65304
1520,3.02148,-0.009810000000000001,-9.65304
1521,3.0607200000000003,0.10791000000000002,-10.006200000000002
1522,3.0607200000000003,0.10791000000000002,-10.006200000000002
1523,3.0607200000000003,0.10791000000000002,-10.006200000000002
1524,3.0411000000000006,0.34335000000000004,-8.40717
1525,3.0411000000000006,0.34335000000000004,-8.40717
1526,3.02148,0.18639000000000003,-8.642610000000001
1527,3.02148,0.18639000000000003,-8.642610000000001
1528,3.02148,0.18639000000000003,-8.642610000000001
1529,3.01167,0.26487,-9.46665
1530,3.01167,0.26487,-9.46665
1531,3.0607200000000003,0.25506,-9.64323
1532,3.0607200000000003,0.25506,-9.64323
1533,3.0509100000000005,-0.05886,-8.358120000000001
1534,3.0509100000000005,-0.05886,-8.358120000000001
1535,3.0607200000000003,-0.15696000000000002,-8.99577
1536,3.0607200000000003,-0.15696000000000002,-8.99577
1537,3.0607200000000003,-0.15696000000000002,-8.99577
1538,3.0607200000000003,0.05886,-9.309690000000002
1539,3.0607200000000003,0.05886,-9.309690000000002
1540,3.09015,0.02943,-9.339120000000001
1541,3.09015,0.02943,-9.339120000000001
1542,3.09015,0.02943,-9.339120000000001
1543,3.09015,0.33354,-8.7309
1544,3.09015,0.33354,-8.7309
1545,3.0999600000000003,0.34335000000000004,-9.42741
1546,3.0999600000000003,0.34335000000000004,-9.42741
1547,3.03129,0.10791000000000002,-9.65304
1548,3.03129,0.10791000000000002,-9.65304
1549,3.07053,0.13734000000000002,-9.260640000000002
1550,3.07053,0.13734000000000002,-9.260640000000002
1551,3.07053,0.13734000000000002,-9.260640000000002
1552,3.07053,-0.04905,-8.99577
1553,3.07053,-0.04905,-8.99577
1554,3.07053,-0.04905,-8.99577
1555,3.02148,-0.10791000000000002,-9.11349
1556,3.02148,-0.10791000000000002,-9.11349
1557,3.0411000000000006,0.4905,-10.16316
1558,3.0411000000000006,0.4905,-10.16316
1559,3.0411000000000006,0.4905,-10.16316
1560,3.14901,0.5886,-9.309690000000002
1561,3.2176800000000005,0.0,-9.50589
1562,3.2176800000000005,0.0,-9.50589
1563,3.2176800000000005,0.0,-9.50589
1564,3.03129,-0.08829000000000001,-9.898290000000001
1565,3.03129,-0.08829000000000001,-9.898290000000001
1566,2.9135700000000004,0.15696000000000002,-9.731520000000002
1567,2.9135700000000004,0.15696000000000002,-9.731520000000002
1568,2.9135700000000004,0.15696000000000002,-9.731520000000002
1569,2.95281,0.34335000000000004,-9.70209
1570,2.95281,0.34335000000000004,-9.70209
1571,3.03129,0.05886,-10.48689
1572,3.03129,0.05886,-10.48689
1573,3.03129,0.05886,-10.48689
1574,2.95281,0.14715,-10.08468
1575,2.95281,0.14715,-10.08468
1576,2.8841400000000004,0.11772,-9.83943
1577,2.8841400000000004,0.11772,-9.83943
1578,3.01167,0.039240000000000004,-10.035630000000001
1579,3.01167,0.039240000000000004,-10.035630000000001
1580,3.01167,0.039240000000000004,-10.035630000000001
1581,2.9233800000000003,-0.009810000000000001,-9.770760000000001
1582,2.9233800000000003,-0.009810000000000001,-9.770760000000001
1583,2.9233800000000003,-0.009810000000000001,-9.770760000000001
1584,2.9233800000000003,-0.009810000000000001,-9.770760000000001
1585,2.87433,0.38259000000000004,-9.996390000000002
1586,3.01167,0.40221000000000007,-9.496080000000001
1587,3.01167,0.40221000000000007,-9.496080000000001
1588,3.0411000000000006,0.45126000000000005,-9.29007
1589,3.0411000000000006,0.45126000000000005,-9.29007
1590,3.10977,0.08829000000000001,-9.260640000000002
1591,3.10977,0.08829000000000001,-9.260640000000002
1592,3.10977,0.08829000000000001,-9.260640000000002
1593,2.9233800000000003,0.1962,-9.476460000000001
1594,2.9233800000000003,0.1962,-9.476460000000001
1595,2.8449,0.28449,-8.90748
1596,2.8449,0.28449,-8.90748
1597,2.9724300000000006,0.37278000000000006,-8.48565
1598,2.9724300000000006,0.37278000000000006,-8.48565
1599,2.9724300000000006,0.37278000000000006,-8.48565
1600,3.02148,0.28449,-9.94734
1601,3.02148,0.28449,-9.94734
1602,3.02148,0.28449,-9.94734
1603,2.93319,0.0,-9.46665
1604,3.03129,0.30411000000000005,-10.378980000000002
1605,3.03129,0.30411000000000005,-10.378980000000002
1606,3.03129,0.30411000000000005,-10.378980000000002
1607,3.01167,0.2943,-9.329310000000001
1608,3.01167,0.2943,-9.329310000000001
1609,3.01167,0.2943,-9.329310000000001
1610,2.9233800000000003,0.0981,-8.917290000000001
1611,2.9233800000000003,0.0981,-8.917290000000001
1612,2.8939500000000002,0.11772,-8.7309
1613,2.8939500000000002,0.11772,-8.7309
1614,3.09015,0.019620000000000002,-9.780569999999999
1615,3.09015,0.019620000000000002,-9.780569999999999
1616,3.09015,0.019620000000000002,-9.780569999999999
1617,3.09015,0.15696000000000002,-8.68185
1618,3.09015,0.15696000000000002,-8.68185
1619,3.10977,-0.14715,-9.084060000000001
1620,3.10977,-0.14715,-9.084060000000001
1621,3.03129,-0.08829000000000001,-9.74133
1622,3.03129,-0.08829000000000001,-9.74133
1623,3.03129,-0.08829000000000001,-9.74133
1624,3.1293900000000003,0.10791000000000002,-9.17235
1625,3.1293900000000003,0.10791000000000002,-9.17235
1626,3.1293900000000003,0.1962,-8.62299
1627,3.1293900000000003,0.1962,-8.62299
1628,3.1293900000000003,0.039240000000000004,-9.60399
1629,3.1293900000000003,0.039240000000000004,-9.60399
1630,3.1293900000000003,0.039240000000000004,-9.60399
1631,3.07053,0.11772,-10.192590000000001
1632,3.07053,0.11772,-10.192590000000001
1633,3.07053,0.11772,-10.192590000000001
1634,3.20787,0.12753,-10.06506
1635,3.20787,0.12753,-10.06506
1636,3.0509100000000005,0.15696000000000002,-9.53532
1637,3.0509100000000005,0.15696000000000002,-9.53532
1638,2.9822400000000004,0.05886,-9.084060000000001
1639,2.9822400000000004,0.05886,-9.084060000000001
1640,2.9822400000000004,0.05886,-9.084060000000001
1641,3.0509100000000005,-0.1962,-10.95777
1642,3.0509100000000005,-0.1962,-10.95777
1643,3.00186,0.44145000000000006,-9.60399
1644,3.00186,0.44145000000000006,-9.60399
1645,2.9920500000000003,0.25506,-9.98658
1646,2.9920500000000003,0.25506,-9.98658
1647,2.9920500000000003,0.25506,-9.98658
1648,2.78604,0.23544,-7.995150000000001
1649,2.78604,0.23544,-7.995150000000001
1650,2.78604,0.23544,-7.995150000000001
1651,2.8841400000000004,0.10791000000000002,-9.868860000000002
1652,2.8841400000000004,0.10791000000000002,-9.868860000000002
1653,3.09015,-0.009810000000000001,-9.94734
1654,3.09015,-0.009810000000000001,-9.94734
1655,2.9920500000000003,0.05886,-8.95653
1656,2.9920500000000003,0.05886,-8.95653
1657,2.9920500000000003,0.05886,-8.95653
1658,2.8939500000000002,-0.04905,-9.28026
1659,2.8939500000000002,-0.04905,-9.28026
1660,2.8939500000000002,-0.04905,-9.28026
1661,2.9724300000000006,0.25506,-9.10368
1662,2.9724300000000006,0.25506,-9.10368
1663,3.02148,0.22563000000000002,-10.182780000000001
1664,3.02148,0.22563000000000002,-10.182780000000001
1665,3.07053,0.15696000000000002,-8.95653
1666,3.07053,0.15696000000000002,-8.95653
1667,2.943,-0.11772,-8.95653
1668,2.943,-0.11772,-8.95653
1669,2.8841400000000004,-0.009810000000000001,-9.54513
1670,2.8841400000000004,-0.009810000000000001,-9.54513
1671,2.8841400000000004,-0.009810000000000001,-9.54513
1672,2.9626200000000003,0.38259000000000004,-9.70209
1673,2.9626200000000003,0.38259000000000004,-9.70209
1674,3.0411000000000006,0.14715,-9.92772
1675,3.0411000000000006,0.14715,-9.92772
1676,3.0411000000000006,0.14715,-9.92772
1677,2.9724300000000006,0.08829000000000001,-9.299880000000002
1678,2.9724300000000006,0.08829000000000001,-9.299880000000002
1679,2.8841400000000004,0.23544,-9.37836
1680,2.8841400000000004,0.23544,-9.37836
1681,2.95281,0.25506,-9.3195
1682,2.95281,0.25506,-9.3195
1683,2.95281,0.25506,-9.3195
1684,2.93319,0.32373,-7.9461
1685,2.93319,0.32373,-7.9461
1686,2.9233800000000003,0.12753,-8.98596
1687,2.9233800000000003,0.12753,-8.98596
1688,2.9233800000000003,0.12753,-8.98596
1689,2.9233800000000003,0.12753,-8.98596
1690,2.9233800000000003,0.12753,-8.98596
1691,2.8841400000000004,-0.10791000000000002,-8.79957
1692,2.8841400000000004,-0.10791000000000002,-8.79957
1693,2.8841400000000004,-0.10791000000000002,-8.79957
1694,2.8841400000000004,-0.10791000000000002,-8.79957
1695,2.8841400000000004,-0.10791000000000002,-8.79957
1696,2.8939500000000002,0.18639000000000003,-9.03501
1697,2.8939500000000002,0.18639000000000003,-9.03501
1698,2.8939500000000002,0.18639000000000003,-9.03501
1699,2.8939500000000002,0.18639000000000003,-9.03501
1700,2.8939500000000002,0.18639000000000003,-9.03501
1701,2.8547100000000003,0.24525,-10.133730000000002
1702,2.8547100000000003,0.24525,-10.133730000000002
1703,2.8547100000000003,0.24525,-10.133730000000002
1704,2.8547100000000003,0.24525,-10.133730000000002
1705,2.8547100000000003,0.24525,-10.133730000000002
1706,2.7566100000000002,0.0981,-9.84924
1707,2.7566100000000002,0.0981,-9.84924
1708,2.7566100000000002,0.0981,-9.84924
1709,2.7566100000000002,0.0981,-9.84924
1710,2.7566100000000002,0.0981,-9.84924
1711,2.65851,0.26487,-8.652420000000001
1712,2.65851,0.26487,-8.652420000000001
1713,2.65851,0.26487,-8.652420000000001
1714,2.65851,0.26487,-8.652420000000001
1715,2.65851,0.26487,-8.652420000000001
1716,2.62908,0.13734000000000002,-10.76157
1717,2.62908,0.13734000000000002,-10.76157
1718,2.62908,0.13734000000000002,-10.76157
1719,2.62908,0.13734000000000002,-10.76157
1720,2.62908,0.13734000000000002,-10.76157
1721,2.46231,0.34335000000000004,-10.526130000000002
1722,2.46231,0.34335000000000004,-10.526130000000002
1723,2.46231,0.34335000000000004,-10.526130000000002
1724,2.46231,0.34335000000000004,-10.526130000000002
1725,2.46231,0.34335000000000004,-10.526130000000002
1726,2.3151600000000006,0.24525,-10.16316
1727,2.3151600000000006,0.24525,-10.16316
1728,2.3151600000000006,0.24525,-10.16316
1729,2.3151600000000006,0.24525,-10.16316
1730,2.3151600000000006,0.24525,-10.16316
1731,2.3151600000000006,0.24525,-10.16316
1732,2.17782,0.18639000000000003,-10.23183
1733,2.17782,0.18639000000000003,-10.23183
1734,2.17782,0.18639000000000003,-10.23183
1735,2.17782,0.18639000000000003,-10.23183
1736,2.10915,0.07848000000000001,-7.67142
1737,2.10915,0.07848000000000001,-7.67142
1738,2.10915,0.07848000000000001,-7.67142
1739,2.10915,0.07848000000000001,-7.67142
1740,2.10915,0.07848000000000001,-7.67142
1741,2.10915,0.07848000000000001,-7.67142
1742,2.2661100000000003,-0.4316400000000001,-13.68495
1743,2.2661100000000003,-0.4316400000000001,-13.68495
1744,2.2661100000000003,-0.4316400000000001,-13.68495
1745,2.2661100000000003,-0.4316400000000001,-13.68495
1746,2.2661100000000003,-0.4316400000000001,-13.68495
1747,1.8246600000000002,0.45126000000000005,-8.15211
1748,1.8246600000000002,0.45126000000000005,-8.15211
1749,1.8246600000000002,0.45126000000000005,-8.15211
1750,1.8246600000000002,0.45126000000000005,-8.15211
1751,1.8246600000000002,0.45126000000000005,-8.15211
1752,1.9325700000000001,0.5493600000000001,-9.201780000000001
1753,1.9325700000000001,0.5493600000000001,-9.201780000000001
1754,1.9325700000000001,0.5493600000000001,-9.201780000000001
1755,1.9325700000000001,0.5493600000000001,-9.201780000000001
1756,1.8246600000000002,-0.21582000000000004,-9.70209
1757,1.8246600000000002,-0.21582000000000004,-9.70209
1758,1.8246600000000002,-0.21582000000000004,-9.70209
1759,1.8246600000000002,-0.21582000000000004,-9.70209
1760,1.8246600000000002,-0.21582000000000004,-9.70209
1761,1.8246600000000002,-0.21582000000000004,-9.70209
1762,1.7363700000000002,-0.18639000000000003,-9.633420000000001
1763,1.7363700000000002,-0.18639000000000003,-9.633420000000001
1764,1.74618,0.4905,-9.66285
1765,1.74618,0.4905,-9.66285
1766,1.79523,0.65727,-8.387550000000001
1767,1.79523,0.65727,-8.387550000000001
1768,1.79523,0.65727,-8.387550000000001
1769,1.58922,0.26487,-8.02458
1770,1.58922,0.26487,-8.02458
1771,1.6382700000000001,0.6376499999999999,-7.867620000000001
1772,1.6382700000000001,0.6376499999999999,-7.867620000000001
1773,1.6382700000000001,0.6376499999999999,-7.867620000000001
1774,1.5499800000000001,0.02943,-11.44827
1775,1.5499800000000001,0.02943,-11.44827
1776,1.5205500000000003,0.40221000000000007,-8.44641
1777,1.5205500000000003,0.40221000000000007,-8.44641
1778,1.0791000000000002,-0.16677,-9.60399
1779,1.0791000000000002,-0.16677,-9.60399
1780,0.89271,0.06867000000000001,-9.486270000000001
1781,0.89271,0.06867000000000001,-9.486270000000001
1782,0.89271,0.06867000000000001,-9.486270000000001
1783,0.89271,0.06867000000000001,-9.486270000000001
1784,0.6082200000000001,-0.04905,-7.18092
1785,0.6082200000000001,-0.04905,-7.18092
1786,0.35316000000000003,-0.02943,-9.28026
1787,0.35316000000000003,-0.02943,-9.28026
1788,0.36297,0.20601000000000003,-9.10368
1789,0.36297,0.20601000000000003,-9.10368
1790,0.23544,0.30411000000000005,-8.55432
1791,0.23544,0.30411000000000005,-8.55432
1792,0.1962,0.45126000000000005,-6.876810000000001
1793,0.1962,0.45126000000000005,-6.876810000000001
1794,0.1962,0.45126000000000005,-6.876810000000001
1795,0.1962,0.45126000000000005,-6.876810000000001
1796,0.24525,0.0,-8.20116
1797,0.24525,0.0,-8.20116
1798,0.06867000000000001,-0.04905,-8.348310000000001
1799,0.06867000000000001,-0.04905,-8.348310000000001
1800,0.039240000000000004,-0.12753,-7.40655
1801,0.039240000000000004,-0.12753,-7.40655
1802,-0.15696000000000002,-0.009810000000000001,-8.210970000000001
1803,-0.15696000000000002,-0.009810000000000001,-8.210970000000001
1804,-0.15696000000000002,-0.009810000000000001,-8.210970000000001
1805,-0.2943,0.0,-9.770760000000001
1806,-0.2943,0.0,-9.770760000000001
1807,-0.21582000000000004,0.0,-8.99577
1808,-0.21582000000000004,0.0,-8.99577
1809,-0.21582000000000004,0.0,-8.99577
1810,-0.37278000000000006,0.019620000000000002,-9.42741
1811,-0.37278000000000006,0.019620000000000002,-9.42741
1812,-0.37278000000000006,-0.15696000000000002,-9.201780000000001
1813,-0.37278000000000006,-0.15696000000000002,-9.201780000000001
1815,-0.44145000000000006,-0.08829000000000001,-8.318880000000002
1816,-0.52974,-0.25506,-9.751140000000001
1817,-0.52974,-0.25506,-9.751140000000001
1818,-0.52974,-0.25506,-9.751140000000001
1819,-0.5199300000000001,0.009810000000000001,-9.584370000000002
1820,-0.5199300000000001,0.009810000000000001,-9.584370000000002
1821,-0.6278400000000001,0.15696000000000002,-8.887860000000002
1822,-0.6278400000000001,0.15696000000000002,-8.887860000000002
1823,-0.6278400000000001,0.15696000000000002,-8.887860000000002
1824,-0.6278400000000001,0.30411000000000005,-10.143540000000002
1825,-0.6278400000000001,0.30411000000000005,-10.143540000000002
1826,-0.56898,-0.15696000000000002,-9.03501
1827,-0.56898,-0.15696000000000002,-9.03501
1828,-0.64746,-0.27468000000000004,-10.428030000000001
1829,-0.64746,-0.27468000000000004,-10.428030000000001
1830,-0.64746,-0.27468000000000004,-10.428030000000001
1831,-0.6376499999999999,0.019620000000000002,-9.584370000000002
1832,-0.6376499999999999,0.019620000000000002,-9.584370000000002
1833,-0.6376499999999999,0.019620000000000002,-9.584370000000002
1834,-0.69651,0.08829000000000001,-10.133730000000002
1835,-0.69651,0.08829000000000001,-10.133730000000002
1836,-0.6180300000000001,-0.0981,-9.74133
1837,-0.6180300000000001,-0.0981,-9.74133
1838,-0.66708,0.06867000000000001,-10.182780000000001
1839,-0.66708,0.06867000000000001,-10.182780000000001
1840,-0.66708,0.06867000000000001,-10.182780000000001
1841,-0.5984100000000001,-0.12753,-9.437220000000002
1842,-0.5984100000000001,-0.12753,-9.437220000000002
1843,-0.67689,-0.12753,-9.94734
1844,-0.67689,-0.12753,-9.94734
1845,-0.69651,0.10791000000000002,-8.67204
1846,-0.69651,0.10791000000000002,-8.67204
1847,-0.69651,0.10791000000000002,-8.67204
1848,-0.7455600000000001,0.04905,-10.241640000000002
1849,-0.7455600000000001,0.04905,-10.241640000000002
1850,-0.6082200000000001,-0.06867000000000001,-10.90872
1851,-0.6082200000000001,-0.06867000000000001,-10.90872
1852,-0.6082200000000001,-0.06867000000000001,-10.90872
1853,-0.5493600000000001,-0.30411000000000005,-9.633420000000001
1854,-0.5493600000000001,-0.30411000000000005,-9.633420000000001
1855,-0.65727,-0.039240000000000004,-9.054630000000001
1856,-0.65727,-0.039240000000000004,-9.054630000000001
1857,-0.6180300000000001,0.1962,-9.260640000000002
1858,-0.6180300000000001,0.1962,-9.260640000000002
1859,-0.6180300000000001,0.1962,-9.260640000000002
1860,-0.56898,0.05886,-9.917910000000001
1861,-0.56898,0.05886,-9.917910000000001
1862,-0.56898,0.05886,-9.917910000000001
1863,-0.45126000000000005,-0.24525,-8.69166
1864,-0.45126000000000005,-0.24525,-8.69166
1865,-0.50031,-0.21582000000000004,-9.633420000000001
1866,-0.50031,-0.21582000000000004,-9.633420000000001
1867,-0.5787900000000001,0.0,-10.48689
1868,-0.5787900000000001,0.0,-10.48689
1869,-0.5787900000000001,0.0,-10.48689
1870,-0.5984100000000001,0.15696000000000002,-9.339120000000001
1871,-0.5984100000000001,0.15696000000000002,-9.339120000000001
1872,-0.6180300000000001,0.11772,-10.23183
1873,-0.6180300000000001,0.11772,-10.23183
1874,-0.6180300000000001,0.17658000000000001,-9.98658
1875,-0.6180300000000001,0.17658000000000001,-9.98658
1876,-0.6180300000000001,0.17658000000000001,-9.98658
1877,-0.5395500000000001,-0.009810000000000001,-11.09511
1878,-0.5395500000000001,-0.009810000000000001,-11.09511
1879,-0.56898,-0.06867000000000001,-9.67266
1880,-0.56898,-0.06867000000000001,-9.67266
1881,-0.56898,-0.06867000000000001,-9.67266
1882,-0.5395500000000001,-0.17658000000000001,-10.310310000000001
1883,-0.5395500000000001,-0.17658000000000001,-10.310310000000001
1884,-0.52974,-0.18639000000000003,-9.98658
1885,-0.52974,-0.18639000000000003,-9.98658
1886,-0.4905,0.10791000000000002,-9.24102
1887,-0.4905,0.10791000000000002,-9.24102
1888,-0.22563000000000002,0.30411000000000005,-9.868860000000002
1889,-0.22563000000000002,0.30411000000000005,-9.868860000000002
1890,-0.22563000000000002,0.30411000000000005,-9.868860000000002
1891,-0.22563000000000002,0.30411000000000005,-9.868860000000002
1892,-0.24525,-0.019620000000000002,-10.192590000000001
1893,-0.24525,-0.019620000000000002,-10.192590000000001
1894,-0.34335000000000004,-0.039240000000000004,-10.055250000000001
1895,-0.34335000000000004,-0.039240000000000004,-10.055250000000001
1896,-0.46107000000000004,-0.16677,-10.54575
1897,-0.46107000000000004,-0.16677,-10.54575
1898,-0.41202000000000005,0.11772,-10.16316
1899,-0.41202000000000005,0.11772,-10.16316
1900,-0.41202000000000005,0.11772,-10.16316
1901,-0.32373,0.11772,-10.006200000000002
1902,-0.32373,0.11772,-10.006200000000002
1903,-0.28449,0.30411000000000005,-10.27107
1904,-0.28449,0.30411000000000005,-10.27107
1905,-0.28449,-0.05886,-10.555560000000002
1906,-0.28449,-0.05886,-10.555560000000002
1907,-0.28449,-0.05886,-10.555560000000002
1908,-0.42183000000000004,0.0981,-9.339120000000001
1909,-0.42183000000000004,0.0981,-9.339120000000001
1910,-0.3924,0.30411000000000005,-10.16316
1911,-0.3924,0.30411000000000005,-10.16316
1912,-0.3924,0.30411000000000005,-10.16316
1913,-0.34335000000000004,0.0,-10.810620000000002
1914,-0.34335000000000004,0.0,-10.810620000000002
1915,-0.45126000000000005,0.0,-10.378980000000002
1916,-0.45126000000000005,0.0,-10.378980000000002
1917,-0.31392000000000003,-0.10791000000000002,-10.67328
1918,-0.31392000000000003,-0.10791000000000002,-10.67328
1919,-0.31392000000000003,-0.10791000000000002,-10.67328
1920,-0.31392000000000003,-0.10791000000000002,-10.67328
1921,-0.26487,0.42183000000000004,-10.53594
1922,-0.34335000000000004,0.25506,-8.51508
1923,-0.34335000000000004,0.25506,-8.51508
1924,-0.40221000000000007,0.12753,-9.397980000000002
1925,-0.40221000000000007,0.12753,-9.397980000000002
1926,-0.40221000000000007,0.12753,-9.397980000000002
1927,-0.32373,0.0,-9.70209
1928,-0.32373,0.0,-9.70209
1929,-0.32373,0.0,-9.70209
1930,-0.33354,0.13734000000000002,-10.72233
1931,-0.33354,0.13734000000000002,-10.72233
1932,-0.15696000000000002,0.009810000000000001,-9.24102
1933,-0.15696000000000002,0.009810000000000001,-9.24102
1934,-0.2943,0.02943,-9.25083
1935,-0.2943,0.02943,-9.25083
1936,-0.23544,-0.17658000000000001,-10.320120000000001
1937,-0.23544,-0.17658000000000001,-10.320120000000001
1938,-0.23544,-0.17658000000000001,-10.320120000000001
1939,-0.1962,-0.25506,-7.838190000000001
1940,-0.1962,-0.25506,-7.838190000000001
1941,-0.1962,-0.25506,-7.838190000000001
1942,-0.1962,-0.25506,-7.838190000000001
1943,-0.24525,-0.02943,-9.67266
1944,-0.1962,0.2943,-10.92834
1945,-0.1962,0.2943,-10.92834
1946,-0.22563000000000002,0.37278000000000006,-11.409030000000001
1947,-0.22563000000000002,0.37278000000000006,-11.409030000000001
1948,-0.22563000000000002,0.37278000000000006,-11.409030000000001
1949,-0.17658000000000001,-0.28449,-8.917290000000001
1950,-0.17658000000000001,-0.28449,-8.917290000000001
1951,-0.24525,-0.13734000000000002,-10.006200000000002
1952,-0.24525,-0.13734000000000002,-10.006200000000002
1953,-0.14715,-0.10791000000000002,-10.3005
1954,-0.14715,-0.10791000000000002,-10.3005
1955,-0.14715,-0.10791000000000002,-10.3005
1956,-0.18639000000000003,0.5493600000000001,-8.28945
1957,-0.18639000000000003,0.5493600000000001,-8.28945
1958,-0.20601000000000003,0.10791000000000002,-10.428030000000001
1959,-0.20601000000000003,0.10791000000000002,-10.428030000000001
1960,-0.20601000000000003,0.10791000000000002,-10.428030000000001
1961,-0.06867000000000001,0.27468000000000004,-9.69228
1962,-0.06867000000000001,0.27468000000000004,-9.69228
1963,-0.18639000000000003,0.20601000000000003,-10.72233
1964,-0.18639000000000003,0.20601000000000003,-10.72233
1965,-0.14715,0.02943,-10.21221
1966,-0.14715,0.02943,-10.21221
1967,-0.14715,0.02943,-10.21221
1968,-0.14715,0.02943,-10.21221
1969,-0.35316000000000003,0.16677,-9.780569999999999
1970,-0.36297,-0.08829000000000001,-9.2214
1971,-0.36297,-0.08829000000000001,-9.2214
1972,-0.36297,-0.08829000000000001,-9.2214
1973,-0.48069,-0.17658000000000001,-11.20302
1974,-0.41202000000000005,-0.0981,-10.3005
1975,-0.41202000000000005,-0.0981,-10.3005
1976,-0.41202000000000005,-0.0981,-10.3005
1977,-0.35316000000000003,0.40221000000000007,-9.770760000000001
1978,-0.35316000000000003,0.40221000000000007,-9.770760000000001
1979,-0.35316000000000003,0.40221000000000007,-9.770760000000001
1980,-0.35316000000000003,0.40221000000000007,-9.770760000000001
1981,-0.25506,-0.05886,-9.11349
1982,-0.1962,0.06867000000000001,-9.50589
1983,-0.1962,0.06867000000000001,-9.50589
1984,-0.1962,0.06867000000000001,-9.50589
1985,-0.10791000000000002,0.26487,-10.16316
1986,-0.10791000000000002,0.26487,-10.16316
1987,-0.20601000000000003,0.10791000000000002,-9.584370000000002
1988,-0.20601000000000003,0.10791000000000002,-9.584370000000002
1989,-0.11772,-0.02943,-9.81
1990,-0.11772,-0.02943,-9.81
1991,-0.11772,-0.02943,-9.81
1992,-0.11772,-0.02943,-9.81
1993,-0.1962,-0.04905,-9.55494
1994,-0.1962,-0.04905,-9.55494
1995,-0.24525,-0.07848000000000001,-10.16316
1996,-0.24525,-0.07848000000000001,-10.16316
1997,-0.30411000000000005,0.27468000000000004,-9.15273
1998,-0.30411000000000005,0.27468000000000004,-9.15273
1999,-0.4316400000000001,-0.11772,-11.87991
2000,-0.4316400000000001,-0.11772,-11.87991
2001,-0.4316400000000001,-0.11772,-11.87991
2002,-0.45126000000000005,-0.08829000000000001,-10.12392
2003,-0.45126000000000005,-0.08829000000000001,-10.12392
2004,-0.56898,0.13734000000000002,-10.378980000000002
2005,-0.56898,0.13734000000000002,-10.378980000000002
2006,-0.56898,0.13734000000000002,-10.378980000000002
2007,-0.4905,0.08829000000000001,-9.496080000000001
2008,-0.47088,0.0,-9.760950000000001
2009,-0.47088,0.0,-9.760950000000001
2010,-0.52974,-0.13734000000000002,-10.241640000000002
2011,-0.52974,-0.13734000000000002,-10.241640000000002
2012,-0.52974,-0.13734000000000002,-10.241640000000002
2013,-0.67689,-0.13734000000000002,-9.70209
2014,-0.67689,-0.13734000000000002,-9.70209
2015,-0.67689,-0.13734000000000002,-9.70209
2016,-0.66708,-0.3924,-9.682470000000002
2017,-0.66708,-0.3924,-9.682470000000002
2018,-0.66708,-0.3924,-9.682470000000002
2019,-0.71613,0.009810000000000001,-10.840050000000002
2020,-0.64746,0.02943,-9.339120000000001
2021,-0.64746,0.02943,-9.339120000000001
2022,-0.64746,0.02943,-9.339120000000001
2023,-0.6376499999999999,0.0,-9.760950000000001
2024,-0.6376499999999999,0.0,-9.760950000000001
2025,-0.6278400000000001,0.4316400000000001,-9.60399
2026,-0.6278400000000001,0.4316400000000001,-9.60399
2027,-0.72594,-0.0981,-11.467890000000002
2028,-0.72594,-0.0981,-11.467890000000002
2029,-0.72594,-0.0981,-11.467890000000002
2030,-0.33354,0.17658000000000001,-2.6388900000000004
2031,-0.33354,0.17658000000000001,-2.6388900000000004
2032,-0.69651,-0.5199300000000001,-10.575180000000001
2033,-0.69651,-0.5199300000000001,-10.575180000000001
2034,-0.69651,-0.5199300000000001,-10.575180000000001
2035,-0.69651,0.06867000000000001,-8.51508
2036,-0.69651,0.06867000000000001,-8.51508
2037,-0.7651800000000001,0.22563000000000002,-9.00558
2038,-0.7651800000000001,0.22563000000000002,-9.00558
2039,-0.7651800000000001,0.22563000000000002,-9.00558
2040,-0.64746,0.56898,-9.83943
2041,-0.64746,0.56898,-9.83943
2042,-0.56898,-0.14715,-8.51508
2043,-0.56898,-0.14715,-8.51508
2044,-0.44145000000000006,-0.35316000000000003,-8.09325
2045,-0.44145000000000006,-0.35316000000000003,-8.09325
2046,-0.44145000000000006,-0.35316000000000003,-8.09325
2047,-0.44145000000000006,-0.13734000000000002,-9.329310000000001
2048,-0.44145000000000006,-0.13734000000000002,-9.329310000000001
2049,-0.44145000000000006,-0.13734000000000002,-9.329310000000001
2050,-0.47088,-0.36297,-9.29007
2051,-0.47088,-0.36297,-9.29007
2052,-0.3924,-0.0981,-8.47584
2053,-0.3924,-0.0981,-8.47584
2054,-0.44145000000000006,0.31392000000000003,-9.329310000000001
2055,-0.44145000000000006,0.31392000000000003,-9.329310000000001
2056,-0.44145000000000006,0.31392000000000003,-9.329310000000001
2057,-0.2943,0.51012,-9.859050000000002
2058,-0.2943,0.51012,-9.859050000000002
2059,-0.44145000000000006,0.08829000000000001,-9.80019
2060,-0.44145000000000006,0.08829000000000001,-9.80019
2061,-0.44145000000000006,0.08829000000000001,-9.80019
2062,-0.36297,-0.5395500000000001,-10.68309
2063,-0.36297,-0.5395500000000001,-10.68309
2064,-0.38259000000000004,-0.2943,-10.732140000000001
2065,-0.38259000000000004,-0.2943,-10.732140000000001
2066,-0.38259000000000004,-0.2943,-10.732140000000001
2067,-0.5493600000000001,0.13734000000000002,-12.05649
2068,-0.6376499999999999,-0.02943,-12.674520000000001
2069,-0.6376499999999999,-0.02943,-12.674520000000001
2070,-0.6376499999999999,-0.02943,-12.674520000000001
2071,-0.6376499999999999,-0.02943,-12.674520000000001
2072,-0.6376499999999999,-0.02943,-12.674520000000001
2073,-0.6376499999999999,-0.02943,-12.674520000000001
2074,-0.5787900000000001,-0.40221000000000007,-10.947960000000002
2075,-0.5787900000000001,-0.40221000000000007,-10.947960000000002
2076,-0.5787900000000001,-0.40221000000000007,-10.947960000000002
2077,-0.5787900000000001,-0.40221000000000007,-10.947960000000002
2078,-0.5787900000000001,-0.40221000000000007,-10.947960000000002
2079,-0.35316000000000003,0.44145000000000006,-5.8565700000000005
2080,-0.35316000000000003,0.44145000000000006,-5.8565700000000005
2081,-0.35316000000000003,0.44145000000000006,-5.8565700000000005
2082,-0.35316000000000003,0.44145000000000006,-5.8565700000000005
2083,-0.35316000000000003,0.44145000000000006,-5.8565700000000005
2084,-0.23544,0.11772,-10.143540000000002
2085,-0.23544,0.11772,-10.143540000000002
2086,-0.23544,0.11772,-10.143540000000002
2087,-0.23544,0.11772,-10.143540000000002
2088,-0.23544,0.11772,-10.143540000000002
2089,-0.1962,0.039240000000000004,-8.063820000000002
2090,-0.1962,0.039240000000000004,-8.063820000000002
2091,-0.1962,0.039240000000000004,-8.063820000000002
2092,-0.1962,0.039240000000000004,-8.063820000000002
2093,-0.1962,0.07848000000000001,-8.86824
2094,-0.1962,0.07848000000000001,-8.86824
2095,-0.1962,0.07848000000000001,-8.86824
2096,-0.1962,0.07848000000000001,-8.86824
2097,-0.1962,0.07848000000000001,-8.86824
2098,-0.1962,0.07848000000000001,-8.86824
2099,-0.11772,0.15696000000000002,-9.015390000000002
2100,-0.11772,0.15696000000000002,-9.015390000000002
2101,-0.11772,0.15696000000000002,-9.015390000000002
2102,-0.11772,0.15696000000000002,-9.015390000000002
2103,-0.40221000000000007,0.009810000000000001,-10.800810000000002
2104,-0.40221000000000007,0.009810000000000001,-10.800810000000002
2105,-0.40221000000000007,0.009810000000000001,-10.800810000000002
2106,-0.40221000000000007,0.009810000000000001,-10.800810000000002
2107,-0.40221000000000007,0.009810000000000001,-10.800810000000002
2108,-0.25506,0.0,-11.32074
2109,-0.25506,0.0,-11.32074
2110,-0.25506,0.0,-11.32074
2111,-0.25506,0.0,-11.32074
2112,-0.25506,0.0,-11.32074
2113,-0.25506,0.0,-11.32074
2114,-0.22563000000000002,0.07848000000000001,-11.605230000000002
2115,-0.22563000000000002,0.07848000000000001,-11.605230000000002
2116,-0.22563000000000002,0.07848000000000001,-11.605230000000002
2117,-0.22563000000000002,0.07848000000000001,-11.605230000000002
2118,-0.22563000000000002,0.07848000000000001,-11.605230000000002
2119,-0.30411000000000005,0.0,-10.045440000000001
2120,-0.30411000000000005,0.0,-10.045440000000001
2121,-0.30411000000000005,0.0,-10.045440000000001
2122,-0.30411000000000005,0.0,-10.045440000000001
2123,-0.30411000000000005,0.0,-10.045440000000001
2124,-0.25506,-0.07848000000000001,-11.49732
2125,-0.25506,-0.07848000000000001,-11.49732
2126,-0.25506,-0.07848000000000001,-11.49732
2127,-0.25506,-0.07848000000000001,-11.49732
2128,-0.25506,-0.07848000000000001,-11.49732
2129,-0.27468000000000004,0.8632800000000002,-6.435360000000001
2130,-0.27468000000000004,0.8632800000000002,-6.435360000000001
2131,-0.27468000000000004,0.8632800000000002,-6.435360000000001
2132,-0.27468000000000004,0.8632800000000002,-6.435360000000001
2133,-0.27468000000000004,0.8632800000000002,-6.435360000000001
2134,-0.22563000000000002,-0.10791000000000002,-12.115350000000001
2135,-0.22563000000000002,-0.10791000000000002,-12.115350000000001
2136,-0.22563000000000002,-0.10791000000000002,-12.115350000000001
2137,-0.22563000000000002,-0.10791000000000002,-12.115350000000001
2138,-0.22563000000000002,-0.10791000000000002,-12.115350000000001
2139,-0.23544,-0.48069,-10.11411
2140,-0.23544,-0.48069,-10.11411
2141,-0.23544,-0.48069,-10.11411
2142,-0.23544,-0.48069,-10.11411
2143,-0.23544,-0.48069,-10.11411
2144,-0.42183000000000004,0.44145000000000006,-10.53594
2145,-0.42183000000000004,0.44145000000000006,-10.53594
2146,-0.42183000000000004,0.44145000000000006,-10.53594
2147,-0.42183000000000004,0.44145000000000006,-10.53594
2148,-0.42183000000000004,0.44145000000000006,-10.53594
2149,-0.42183000000000004,0.44145000000000006,-10.53594
2150,-0.52974,0.28449,-10.977390000000002
2151,-0.52974,0.28449,-10.977390000000002
2152,-0.52974,0.28449,-10.977390000000002
2153,-0.5493600000000001,-0.30411000000000005,-10.85967
2154,-0.5493600000000001,-0.30411000000000005,-10.85967
2155,-0.5493600000000001,-0.30411000000000005,-10.85967
2156,-0.5493600000000001,-0.30411000000000005,-10.85967
2157,-0.5493600000000001,-0.30411000000000005,-10.85967
2158,-0.51012,-0.11772,-7.44579
2159,-0.51012,-0.11772,-7.44579
2160,-0.51012,-0.11772,-7.44579
2161,-0.51012,-0.11772,-7.44579
2162,-0.51012,-0.11772,-7.44579
2163,-0.5199300000000001,-0.16677,-6.71004
2164,-0.5199300000000001,-0.16677,-6.71004
2165,-0.5199300000000001,-0.16677,-6.71004
2166,-0.5199300000000001,-0.16677,-6.71004
2167,-0.5199300000000001,-0.16677,-6.71004
2168,-0.5493600000000001,-0.21582000000000004,-8.80938
2169,-0.5493600000000001,-0.21582000000000004,-8.80938
2170,-0.5493600000000001,-0.21582000000000004,-8.80938
2171,-0.5493600000000001,-0.21582000000000004,-8.80938
2172,-0.5493600000000001,-0.21582000000000004,-8.80938
2173,-0.5493600000000001,-0.21582000000000004,-8.80938
2174,-0.75537,-0.50031,-11.026440000000001
2175,-0.75537,-0.50031,-11.026440000000001
2176,-0.75537,-0.50031,-11.026440000000001
2177,-0.75537,-0.50031,-11.026440000000001
2178,-0.75537,-0.50031,-11.026440000000001
2179,-0.71613,-0.37278000000000006,-9.819810000000002
2180,-0.71613,-0.37278000000000006,-9.819810000000002
2181,-0.71613,-0.37278000000000006,-9.819810000000002
2182,-0.71613,-0.37278000000000006,-9.819810000000002
2183,-0.71613,-0.37278000000000006,-9.819810000000002
2184,-0.7749900000000001,-0.24525,-10.800810000000002
2185,-0.7749900000000001,-0.24525,-10.800810000000002
2186,-0.7749900000000001,-0.24525,-10.800810000000002
2187,-0.7749900000000001,-0.24525,-10.800810000000002
2188,-0.8044200000000001,-0.47088,-11.536560000000001
2189,-0.8044200000000001,-0.47088,-11.536560000000001
2190,-0.8044200000000001,-0.47088,-11.536560000000001
2191,-0.8044200000000001,-0.47088,-11.536560000000001
2192,-0.8044200000000001,-0.47088,-11.536560000000001
2193,-0.75537,-0.36297,-12.17421
2194,-0.75537,-0.36297,-12.17421
2195,-0.75537,-0.36297,-12.17421
2196,-0.75537,-0.36297,-12.17421
2197,-0.75537,-0.36297,-12.17421
2198,-0.75537,-0.36297,-12.17421
2199,-0.75537,0.08829000000000001,-10.65366
2200,-0.75537,0.08829000000000001,-10.65366
2201,-0.75537,0.08829000000000001,-10.65366
2202,-0.75537,0.08829000000000001,-10.65366
2203,-0.7455600000000001,0.10791000000000002,-10.76157
2204,-0.7455600000000001,0.10791000000000002,-10.76157
2205,-0.7455600000000001,0.10791000000000002,-10.76157
2206,-0.7455600000000001,0.10791000000000002,-10.76157
2207,-0.7455600000000001,0.10791000000000002,-10.76157
2208,-0.7455600000000001,0.10791000000000002,-10.76157
2209,-0.67689,0.26487,-9.211590000000001
2210,-0.67689,0.26487,-9.211590000000001
2211,-0.67689,0.26487,-9.211590000000001
2212,-0.67689,0.26487,-9.211590000000001
2213,-0.67689,0.26487,-9.211590000000001
2214,-0.69651,-0.02943,-10.07487
2215,-0.69651,-0.02943,-10.07487
2216,-0.6376499999999999,0.12753,-9.868860000000002
2217,-0.6376499999999999,0.12753,-9.868860000000002
2218,-0.6278400000000001,-0.3924,-11.33055
2219,-0.6278400000000001,-0.3924,-11.33055
2220,-0.6278400000000001,-0.3924,-11.33055
2221,-0.5395500000000001,-0.33354,-9.42741
2222,-0.5395500000000001,-0.33354,-9.42741
2223,-0.5493600000000001,0.18639000000000003,-7.553700000000001
2224,-0.5493600000000001,0.18639000000000003,-7.553700000000001
2225,-0.5395500000000001,-0.039240000000000004,-7.955910000000001
2226,-0.5395500000000001,-0.039240000000000004,-7.955910000000001
2227,-0.5395500000000001,-0.039240000000000004,-7.955910000000001
2228,-0.5395500000000001,-0.039240000000000004,-7.955910000000001
2229,-0.5199300000000001,0.67689,-7.485030000000001
2230,-0.6376499999999999,0.17658000000000001,-11.409030000000001
2231,-0.6376499999999999,0.17658000000000001,-11.409030000000001
2232,-0.6376499999999999,0.17658000000000001,-11.409030000000001
2233,-0.30411000000000005,-0.45126000000000005,-9.92772
2234,-0.30411000000000005,-0.45126000000000005,-9.92772
2235,-0.35316000000000003,-0.039240000000000004,-6.435360000000001
2236,-0.35316000000000003,-0.039240000000000004,-6.435360000000001
2237,-0.35316000000000003,-0.039240000000000004,-6.435360000000001
2238,-0.4905,0.10791000000000002,-9.40779
2239,-0.4905,0.10791000000000002,-9.40779
2240,-0.37278000000000006,0.15696000000000002,-9.53532
2241,-0.37278000000000006,0.15696000000000002,-9.53532
2242,-0.34335000000000004,0.04905,-9.17235
2243,-0.34335000000000004,0.04905,-9.17235
2244,-0.34335000000000004,0.04905,-9.17235
2245,-0.40221000000000007,-0.21582000000000004,-9.721710000000002
2246,-0.40221000000000007,-0.21582000000000004,-9.721710000000002
2247,-0.3924,-0.28449,-6.386310000000001
2248,-0.3924,-0.28449,-6.386310000000001
2249,-0.3924,-0.28449,-6.386310000000001
2250,-0.5984100000000001,-0.30411000000000005,-11.20302
2251,-0.5984100000000001,-0.30411000000000005,-11.20302
2252,-0.47088,-0.28449,-7.622370000000001
2253,-0.47088,-0.28449,-7.622370000000001
2254,-0.47088,-0.28449,-7.622370000000001
2255,-0.50031,0.0,-11.90934
2256,-0.50031,0.0,-11.90934
2257,-0.6278400000000001,0.22563000000000002,-9.14292
2258,-0.6278400000000001,0.22563000000000002,-9.14292
2259,-0.5591700000000001,0.05886,-10.96758
2260,-0.5591700000000001,0.05886,-10.96758
2261,-0.5395500000000001,-0.11772,-9.11349
2262,-0.5395500000000001,-0.11772,-9.11349
2263,-0.5395500000000001,-0.11772,-9.11349
2264,-0.5395500000000001,-0.11772,-9.11349
2265,-0.56898,-0.14715,-11.114730000000002
2266,-0.56898,-0.14715,-11.114730000000002
2267,-0.5886,0.08829000000000001,-8.26002
2268,-0.5787900000000001,0.02943,-10.23183
2269,-0.5787900000000001,0.02943,-10.23183
2270,-0.5787900000000001,0.02943,-10.23183
2271,-0.5199300000000001,0.17658000000000001,-9.5157
2272,-0.5199300000000001,0.17658000000000001,-9.5157
2273,-0.5199300000000001,0.17658000000000001,-9.5157
2274,-0.50031,0.22563000000000002,-9.574560000000002
2275,-0.50031,0.22563000000000002,-9.574560000000002
2276,-0.5199300000000001,0.12753,-10.035630000000001
2277,-0.5199300000000001,0.12753,-10.035630000000001
2278,-0.51012,-0.17658000000000001,-9.760950000000001
2279,-0.51012,-0.17658000000000001,-9.760950000000001
2280,-0.33354,-0.009810000000000001,-10.575180000000001
2281,-0.33354,-0.009810000000000001,-10.575180000000001
2282,-0.33354,-0.009810000000000001,-10.575180000000001
2283,-0.50031,0.08829000000000001,-10.467270000000001
2284,-0.50031,0.08829000000000001,-10.467270000000001
2285,-0.40221000000000007,-0.019620000000000002,-10.09449
2286,-0.40221000000000007,-0.019620000000000002,-10.09449
2287,-0.40221000000000007,-0.019620000000000002,-10.09449
2288,-0.45126000000000005,0.30411000000000005,-8.770140000000001
2289,-0.45126000000000005,0.30411000000000005,-8.770140000000001
2290,-0.45126000000000005,0.30411000000000005,-8.770140000000001
2291,-0.30411000000000005,-0.18639000000000003,-9.66285
2292,-0.30411000000000005,-0.18639000000000003,-9.66285
2293,-0.30411000000000005,-0.18639000000000003,-9.66285
2294,-0.35316000000000003,0.27468000000000004,-9.917910000000001
2295,-0.31392000000000003,-0.10791000000000002,-9.309690000000002
2296,-0.31392000000000003,-0.10791000000000002,-9.309690000000002
2297,-0.31392000000000003,-0.10791000000000002,-9.309690000000002
2298,-0.46107000000000004,-0.02943,-9.486270000000001
2299,-0.46107000000000004,-0.02943,-9.486270000000001
2300,-0.42183000000000004,-0.1962,-11.09511
2301,-0.42183000000000004,-0.1962,-11.09511
2302,-0.42183000000000004,-0.1962,-11.09511
2303,-0.41202000000000005,-0.05886,-10.02582
2304,-0.41202000000000005,-0.05886,-10.02582
2305,-0.34335000000000004,-0.44145000000000006,-11.928960000000002
2306,-0.34335000000000004,-0.44145000000000006,-11.928960000000002
2307,-0.51012,-0.08829000000000001,-10.02582
2308,-0.51012,-0.08829000000000001,-10.02582
2309,-0.51012,-0.08829000000000001,-10.02582
2310,-0.31392000000000003,0.009810000000000001,-10.310310000000001
2311,-0.31392000000000003,0.009810000000000001,-10.310310000000001
2312,-0.22563000000000002,0.019620000000000002,-11.20302
2313,-0.22563000000000002,0.019620000000000002,-11.20302
2314,-0.22563000000000002,0.019620000000000002,-11.20302
2315,-0.33354,0.28449,-10.104300000000002
2316,-0.33354,0.28449,-10.104300000000002
2317,-0.15696000000000002,0.05886,-9.67266
2318,-0.24525,0.15696000000000002,-10.63404
2319,-0.24525,0.15696000000000002,-10.63404
2320,-0.24525,0.15696000000000002,-10.63404
2321,-0.16677,0.10791000000000002,-10.3986
2322,-0.16677,0.10791000000000002,-10.3986
2323,-0.16677,0.10791000000000002,-10.3986
2324,-0.10791000000000002,0.009810000000000001,-9.191970000000001
2325,-0.10791000000000002,0.009810000000000001,-9.191970000000001
2326,-0.10791000000000002,0.009810000000000001,-9.191970000000001
2327,-0.11772,0.039240000000000004,-10.555560000000002
2328,-0.11772,0.039240000000000004,-10.555560000000002
2329,-0.18639000000000003,0.30411000000000005,-9.2214
2330,-0.18639000000000003,0.30411000000000005,-9.2214
2331,-0.10791000000000002,0.08829000000000001,-9.10368
2332,-0.10791000000000002,0.08829000000000001,-9.10368
2333,-0.10791000000000002,0.08829000000000001,-9.10368
2334,-0.15696000000000002,0.019620000000000002,-9.721710000000002
2335,-0.15696000000000002,0.019620000000000002,-9.721710000000002
2336,-0.07848000000000001,0.17658000000000001,-10.12392
2337,-0.07848000000000001,0.17658000000000001,-10.12392
2338,-0.16677,0.11772,-11.673900000000001
2339,-0.16677,0.11772,-11.673900000000001
2340,-0.16677,0.11772,-11.673900000000001
2341,-0.05886,0.11772,-8.946720000000001
2342,-0.05886,0.11772,-8.946720000000001
2343,-0.05886,0.11772,-8.946720000000001
2344,-0.13734000000000002,0.08829000000000001,-11.33055
2345,-0.10791000000000002,0.04905,-9.80019
2346,-0.10791000000000002,0.04905,-9.80019
2347,-0.10791000000000002,0.04905,-9.80019
2348,-0.04905,0.11772,-10.202399999999999
2349,-0.04905,0.11772,-10.202399999999999
2350,0.04905,0.08829000000000001,-10.3986
2351,0.04905,0.08829000000000001,-10.3986
2352,0.04905,0.08829000000000001,-10.3986
2353,-0.04905,0.12753,-9.28026
2354,-0.04905,0.12753,-9.28026
2355,0.039240000000000004,-0.14715,-8.97615
2356,0.039240000000000004,-0.14715,-8.97615
2357,0.039240000000000004,-0.14715,-8.97615
2358,0.0981,-0.15696000000000002,-10.01601
2359,0.0981,-0.15696000000000002,-10.01601
2360,0.0981,-0.15696000000000002,-10.01601
2361,-0.04905,-0.039240000000000004,-9.898290000000001
2362,-0.04905,-0.039240000000000004,-9.898290000000001
2363,-0.009810000000000001,0.06867000000000001,-10.104300000000002
2364,-0.009810000000000001,0.06867000000000001,-10.104300000000002
2365,-0.04905,0.25506,-9.94734
2366,-0.04905,0.25506,-9.94734
2367,-0.04905,0.25506,-9.94734
2368,-0.32373,0.07848000000000001,-10.06506
2369,-0.32373,0.07848000000000001,-10.06506
2370,-0.32373,0.07848000000000001,-10.06506
2371,-0.28449,-0.0981,-10.96758
2372,-0.38259000000000004,0.26487,-8.917290000000001
2373,-0.38259000000000004,0.26487,-8.917290000000001
2374,-0.27468000000000004,0.14715,-9.23121
2375,-0.27468000000000004,0.14715,-9.23121
2376,-0.27468000000000004,0.14715,-9.23121
2377,-0.28449,0.17658000000000001,-9.79038
2378,-0.28449,0.17658000000000001,-9.79038
2379,-0.34335000000000004,0.07848000000000001,-8.40717
2380,-0.34335000000000004,0.07848000000000001,-8.40717
2381,-0.34335000000000004,0.07848000000000001,-8.40717
2382,-0.30411000000000005,-0.15696000000000002,-8.779950000000001
2383,-0.30411000000000005,-0.15696000000000002,-8.779950000000001
2384,-0.34335000000000004,-0.04905,-8.96634
2385,-0.34335000000000004,-0.04905,-8.96634
2386,-0.50031,0.06867000000000001,-9.80019
2387,-0.50031,0.06867000000000001,-9.80019
2388,-0.42183000000000004,0.14715,-8.887860000000002
2389,-0.42183000000000004,0.14715,-8.887860000000002
2390,-0.42183000000000004,0.14715,-8.887860000000002
2391,-0.5591700000000001,0.05886,-8.878050000000002
2392,-0.5591700000000001,0.05886,-8.878050000000002
2393,-0.5591700000000001,0.05886,-8.878050000000002
2394,-0.51012,-0.10791000000000002,-9.80019
2395,-0.51012,-0.10791000000000002,-9.80019
2396,-0.5199300000000001,-0.11772,-9.191970000000001
2397,-0.5199300000000001,-0.11772,-9.191970000000001
2398,-0.5787900000000001,0.07848000000000001,-9.25083
2399,-0.5787900000000001,0.07848000000000001,-9.25083
2400,-0.5787900000000001,0.07848000000000001,-9.25083
2401,-0.46107000000000004,-0.27468000000000004,-9.751140000000001
2402,-0.46107000000000004,-0.27468000000000004,-9.751140000000001
2403,-0.34335000000000004,-0.20601000000000003,-9.996390000000002
2404,-0.34335000000000004,-0.20601000000000003,-9.996390000000002
2405,-0.34335000000000004,-0.20601000000000003,-9.996390000000002
2406,-0.44145000000000006,0.17658000000000001,-9.476460000000001
2407,-0.44145000000000006,0.17658000000000001,-9.476460000000001
2408,-0.44145000000000006,0.22563000000000002,-9.79038
2409,-0.44145000000000006,0.22563000000000002,-9.79038
2410,-0.45126000000000005,0.039240000000000004,-10.58499
2411,-0.45126000000000005,0.039240000000000004,-10.58499
2412,-0.45126000000000005,0.039240000000000004,-10.58499
2413,-0.51012,-0.05886,-10.329930000000001
2414,-0.51012,-0.05886,-10.329930000000001
2415,-0.5787900000000001,-0.04905,-10.12392
2416,-0.5787900000000001,-0.04905,-10.12392
2417,-0.6278400000000001,-0.32373,-9.339120000000001
2418,-0.6278400000000001,-0.32373,-9.339120000000001
2419,-0.6278400000000001,-0.32373,-9.339120000000001
2420,-0.6867000000000001,0.039240000000000004,-9.56475
2421,-0.6867000000000001,0.039240000000000004,-9.56475
2422,-0.6376499999999999,0.44145000000000006,-9.4176
2423,-0.6376499999999999,0.44145000000000006,-9.4176
2424,-0.6376499999999999,0.44145000000000006,-9.4176
2425,-0.6376499999999999,0.44145000000000006,-9.4176
2426,-0.5199300000000001,0.21582000000000004,-6.611940000000001
2427,-0.5199300000000001,0.21582000000000004,-6.611940000000001
2428,-0.3924,-0.5395500000000001,-9.917910000000001
2429,-0.3924,-0.5395500000000001,-9.917910000000001
2430,-0.4316400000000001,-0.13734000000000002,-8.779950000000001
2431,-0.4316400000000001,-0.13734000000000002,-8.779950000000001
2432,-0.50031,0.0,-9.780569999999999
2433,-0.50031,0.0,-9.780569999999999
2434,-0.50031,0.0,-9.780569999999999
2435,-0.4905,0.039240000000000004,-9.1233
2436,-0.4905,0.039240000000000004,-9.1233
2437,-0.5199300000000001,0.3924,-9.27045
2438,-0.5199300000000001,0.3924,-9.27045
2439,-0.5199300000000001,0.3924,-9.27045
2440,-0.5787900000000001,0.32373,-10.02582
2441,-0.5787900000000001,-0.039240000000000004,-10.202399999999999
2442,-0.5787900000000001,-0.039240000000000004,-10.202399999999999
2443,-0.5787900000000001,-0.039240000000000004,-10.202399999999999
2444,-0.56898,-0.06867000000000001,-10.3986
2445,-0.56898,-0.06867000000000001,-10.3986
2446,-0.56898,-0.06867000000000001,-10.3986
2447,-0.6376499999999999,0.06867000000000001,-10.34955
2448,-0.6376499999999999,0.06867000000000001,-10.34955
2449,-0.75537,0.039240000000000004,-11.840670000000001
2450,-0.75537,0.039240000000000004,-11.840670000000001
2451,-0.75537,0.039240000000000004,-11.840670000000001
2452,-0.75537,0.039240000000000004,-11.840670000000001
2453,-0.5493600000000001,-0.67689,-11.359980000000002
2454,-0.5493600000000001,-0.67689,-11.359980000000002
2455,-0.5493600000000001,-0.67689,-11.359980000000002
2456,-0.5493600000000001,-0.67689,-11.359980000000002
2457,-0.5493600000000001,-0.67689,-11.359980000000002
2458,-0.5493600000000001,-0.67689,-11.359980000000002
2459,-0.3924,0.07848000000000001,-9.56475
2460,-0.3924,0.07848000000000001,-9.56475
2461,-0.3924,0.07848000000000001,-9.56475
2462,-0.3924,0.07848000000000001,-9.56475
2463,-0.3924,0.07848000000000001,-9.56475
2464,-0.34335000000000004,-0.12753,-10.280880000000002
2465,-0.34335000000000004,-0.12753,-10.280880000000002
2466,-0.34335000000000004,-0.12753,-10.280880000000002
2467,-0.34335000000000004,-0.12753,-10.280880000000002
2468,-0.34335000000000004,-0.12753,-10.280880000000002
2469,-0.4316400000000001,-0.05886,-9.908100000000001
2470,-0.4316400000000001,-0.05886,-9.908100000000001
2471,-0.4316400000000001,-0.05886,-9.908100000000001
2472,-0.4316400000000001,-0.05886,-9.908100000000001
2473,-0.4316400000000001,-0.05886,-9.908100000000001
2474,-0.3924,0.019620000000000002,-8.7309
2475,-0.3924,0.019620000000000002,-8.7309
2476,-0.3924,0.019620000000000002,-8.7309
2477,-0.3924,0.019620000000000002,-8.7309
2478,-0.3924,0.019620000000000002,-8.7309
2479,-0.33354,0.05886,-10.89891
2480,-0.33354,0.05886,-10.89891
2481,-0.33354,0.05886,-10.89891
2482,-0.33354,0.05886,-10.89891
2483,-0.33354,0.05886,-10.89891
2484,-0.40221000000000007,-0.48069,-9.613800000000001
2485,-0.40221000000000007,-0.48069,-9.613800000000001
2486,-0.40221000000000007,-0.48069,-9.613800000000001
2487,-0.40221000000000007,-0.48069,-9.613800000000001
2488,-0.40221000000000007,-0.48069,-9.613800000000001
2489,-0.18639000000000003,0.67689,-10.72233
2490,-0.18639000000000003,0.67689,-10.72233
2491,-0.18639000000000003,0.67689,-10.72233
2492,-0.18639000000000003,0.67689,-10.72233
2493,-0.4905,-0.08829000000000001,-10.12392
2494,-0.4905,-0.08829000000000001,-10.12392
2495,-0.4905,-0.08829000000000001,-10.12392
2496,-0.4905,-0.08829000000000001,-10.12392
2497,-0.4905,-0.08829000000000001,-10.12392
2498,-0.4905,-0.08829000000000001,-10.12392
2499,-0.6082200000000001,-0.12753,-9.98658
2500,-0.6082200000000001,-0.12753,-9.98658
2501,-0.6082200000000001,-0.12753,-9.98658
2502,-0.6082200000000001,-0.12753,-9.98658
2503,-0.6082200000000001,-0.12753,-9.98658
2504,-0.51012,0.08829000000000001,-10.58499
2505,-0.51012,0.08829000000000001,-10.58499
2506,-0.51012,0.08829000000000001,-10.58499
2507,-0.51012,0.08829000000000001,-10.58499
2508,-0.41202000000000005,0.13734000000000002,-9.201780000000001
2509,-0.41202000000000005,0.13734000000000002,-9.201780000000001
2510,-0.41202000000000005,0.13734000000000002,-9.201780000000001
2511,-0.41202000000000005,0.13734000000000002,-9.201780000000001
2512,-0.41202000000000005,0.13734000000000002,-9.201780000000001
2513,-0.41202000000000005,0.13734000000000002,-9.201780000000001
2514,-0.37278000000000006,0.15696000000000002,-9.064440000000001
2515,-0.37278000000000006,0.15696000000000002,-9.064440000000001
2516,-0.28449,-0.10791000000000002,-9.751140000000001
2517,-0.28449,-0.10791000000000002,-9.751140000000001
2518,-0.36297,0.05886,-9.731520000000002
2519,-0.36297,0.05886,-9.731520000000002
2520,-0.36297,0.05886,-9.731520000000002
2521,-0.4316400000000001,-0.06867000000000001,-9.59418
2522,-0.4316400000000001,-0.06867000000000001,-9.59418
2523,-0.47088,0.21582000000000004,-9.46665
2524,-0.47088,0.21582000000000004,-9.46665
2525,-0.44145000000000006,0.10791000000000002,-9.36855
2526,-0.44145000000000006,0.10791000000000002,-9.36855
2527,-0.44145000000000006,0.10791000000000002,-9.36855
2528,-0.3924,-0.15696000000000002,-9.613800000000001
2529,-0.3924,-0.15696000000000002,-9.613800000000001
2530,-0.3924,-0.15696000000000002,-9.613800000000001
2531,-0.31392000000000003,-0.009810000000000001,-8.85843
2532,-0.31392000000000003,-0.009810000000000001,-8.85843
2533,-0.32373,0.21582000000000004,-9.054630000000001
2534,-0.32373,0.21582000000000004,-9.054630000000001
2535,-0.1962,-0.16677,-9.38817
2536,-0.1962,-0.16677,-9.38817
2537,-0.1962,-0.16677,-9.38817
2538,-0.25506,0.13734000000000002,-9.42741
2539,-0.25506,0.13734000000000002,-9.42741
2540,-0.33354,0.23544,-9.69228
2541,-0.33354,0.23544,-9.69228
2542,-0.33354,0.23544,-9.69228
2543,-0.26487,0.17658000000000001,-8.67204
2544,-0.26487,0.17658000000000001,-8.67204
2545,-0.14715,-0.30411000000000005,-9.95715
2546,-0.14715,-0.30411000000000005,-9.95715
2547,-0.16677,-0.12753,-9.29007
2548,-0.16677,-0.12753,-9.29007
2549,-0.16677,-0.12753,-9.29007
2550,-0.07848000000000001,-0.019620000000000002,-9.4176
2551,-0.07848000000000001,-0.019620000000000002,-9.4176
2552,-0.07848000000000001,-0.019620000000000002,-9.4176
2553,-0.23544,-0.10791000000000002,-9.38817
2554,-0.23544,-0.10791000000000002,-9.38817
2555,-0.1962,0.05886,-9.064440000000001
2556,-0.1962,0.05886,-9.064440000000001
2557,-0.26487,0.16677,-10.104300000000002
2558,-0.26487,0.16677,-10.104300000000002
2559,-0.2943,0.039240000000000004,-11.10492
2560,-0.2943,0.039240000000000004,-11.10492
2561,-0.2943,0.039240000000000004,-11.10492
2562,-0.28449,-0.009810000000000001,-11.163780000000001
2563,-0.28449,-0.009810000000000001,-11.163780000000001
2564,-0.28449,-0.009810000000000001,-11.163780000000001
2565,-0.11772,-0.24525,-10.92834
2566,-0.0981,-0.21582000000000004,-10.77138
2567,-0.0981,-0.21582000000000004,-10.77138
2568,-0.0981,-0.21582000000000004,-10.77138
2569,-0.08829000000000001,0.32373,-10.48689
2570,-0.08829000000000001,0.32373,-10.48689
2571,0.0,0.45126000000000005,-10.565370000000001
2572,0.0,0.45126000000000005,-10.565370000000001
2573,0.0,0.45126000000000005,-10.565370000000001
2574,-0.15696000000000002,0.11772,-9.760950000000001
2575,-0.15696000000000002,0.11772,-9.760950000000001
2576,-0.06867000000000001,-0.13734000000000002,-10.800810000000002
2577,-0.06867000000000001,-0.13734000000000002,-10.800810000000002
2578,-0.12753,0.02943,-9.52551
2579,-0.12753,0.02943,-9.52551
2580,-0.12753,0.02943,-9.52551
2581,0.009810000000000001,0.22563000000000002,-9.613800000000001
2582,0.009810000000000001,0.22563000000000002,-9.613800000000001
2583,0.039240000000000004,0.08829000000000001,-10.526130000000002
2584,0.039240000000000004,0.08829000000000001,-10.526130000000002
2585,0.039240000000000004,0.08829000000000001,-10.526130000000002
2586,0.0,-0.16677,-10.045440000000001
2587,0.0,-0.16677,-10.045440000000001
2588,-0.0981,0.02943,-12.04668
2589,-0.0981,0.02943,-12.04668
2590,-0.04905,0.08829000000000001,-9.966960000000002
2591,-0.04905,0.08829000000000001,-9.966960000000002
2592,-0.04905,0.08829000000000001,-9.966960000000002
2593,0.10791000000000002,-0.07848000000000001,-9.35874
2594,0.10791000000000002,-0.07848000000000001,-9.35874
2595,0.0,0.02943,-10.83024
2596,0.0,0.02943,-10.83024
2597,0.0,0.02943,-10.83024
2598,0.0,0.10791000000000002,-8.740710000000002
2599,0.0,0.10791000000000002,-8.740710000000002
